<?xml version="1.0" encoding="UTF-8"?>
<!--Bundle xml example-->
<Bundle xmlns:xsi="http://www.w3.org/2001/XMLSchema-instance" xmlns="http://hl7.org/fhir" xsi:schemaLocation="http://hl7.org/fhir ../../Schemas/bundle.xsd">
	<id value="320d7908-d1ae-48aa-b055-94561076b945"/>
	<meta>
		<profile value="https://fhir.nhs.uk/StructureDefinition/cofe-document-bundle-1"/>
	</meta>
	<type value="document"/>
	<entry>
		<fullUrl value="urn:uuid:d81fac1b-1bf5-4e8c-a16c-eeead038e77d"/>
		<resource>
			<DocumentReference>
				<id value="d81fac1b-1bf5-4e8c-a16c-eeead038e77d"/>
				<meta>
					<profile value="https://fhir.nhs.uk/StructureDefinition/cofe-documentreference-1"/>
				</meta>
				<!-- Information Recipient 1 - Community physiotherapist -->
				<extension url="https://fhir.nhs.uk/StructureDefinition/extension-cofe-information-recipient-1">
					<valueReference>
						<reference value="urn:uuid:8ece9986-9af0-4882-b0cf-23a96ea7b509"/>
					</valueReference>
				</extension>
				<!-- Information Recipient 2 - patient's wife (related person) -->
				<extension url="https://fhir.nhs.uk/StructureDefinition/extension-cofe-information-recipient-1">
					<valueReference>
						<reference value="urn:uuid:dd1e5b1d-a012-4169-8260-6bbe3599398a"/>
					</valueReference>
				</extension>
				<extension url="https://fhir.nhs.uk/StructureDefinition/extension-cofe-care-setting-type-1">
					<valueCodeableConcept>
						<coding>
							<system value="http://snomed.info/sct"/>
							<code value="310098005"/>
							<display value="Hospital-based physiotherapy service (qualifier value)"/>
						</coding>
					</valueCodeableConcept>
				</extension>
				<subject>
					<reference value="urn:uuid:31686b67-9f20-4644-9a54-193d2f91de57"/>
				</subject>
				<type>
					<coding>
						<system value="http://snomed.info/sct"/>
						<code value="819991000000104"/>
						<display value="Allied health professional assessment record (record artifact)"/>
					</coding>
				</type>
				<!--Hospital Physiotherapist document author-->
				<author>
					<reference value="urn:uuid:9ff4a692-c1d7-4dd6-9e0b-f44e77348faf"/>
				</author>
				<!--NHS Trust as document custodian-->
				<custodian>
					<reference value="urn:uuid:f9f24f89-646b-4a19-a6b1-cabfa3b612e1"/>
				</custodian>
				<created value="2017-05-04T14:30:00+00:00"/>
				<indexed value="2017-05-05T10:00:00+00:00"/>
				<status value="current"/>
				<docStatus>
					<coding>
						<system value="http://hl7.org/fhir/composition-status"/>
						<code value="final"/>
						<display value="Final"/>
					</coding>
				</docStatus>
				<content>
				<!--Attached document -->
					<attachment>
						<url value="urn:uuid:1868a8af-feaf-4f11-90d1-66da928d6bbc"/>
					</attachment>
				</content>
				<context>
					<encounter>
						<reference value="urn:uuid:4f36b35a-ad18-4ea9-a3fb-c893f709e88a"/>
					</encounter>
				</context>
			</DocumentReference>
		</resource>
	</entry>
	<entry>
		<fullUrl value="urn:uuid:31686b67-9f20-4644-9a54-193d2f91de57"/>
		<!-- The patient as the subject of the document -->
		<resource>
			<Patient>
				<id value="31686b67-9f20-4644-9a54-193d2f91de57"/>
				<meta>
					<profile value="https://fhir.hl7.org.uk/StructureDefinition/CareConnect-Patient-1"/>
				</meta>
				<extension url="https://fhir.hl7.org.uk/StructureDefinition/Extension-CareConnect-EthnicCategory-1">
					<valueCodeableConcept>
						<coding>
							<system value="https://fhir.hl7.org.uk/CareConnect-EthnicCategory-1"/>
							<code value="A"/>
							<display value="British, Mixed British"/>
						</coding>
					</valueCodeableConcept>
				</extension>
				<extension url="https://fhir.hl7.org.uk/StructureDefinition/Extension-CareConnect-ReligiousAffiliation-1">
					<valueCodeableConcept>
						<coding>
							<system value="http://snomed.info/sct"/>
							<code value="160542002"/>
							<display value="Atheist (person)"/>
						</coding>
					</valueCodeableConcept>
				</extension>
				<extension url="https://fhir.hl7.org.uk/StructureDefinition/Extension-CareConnect-ResidentialStatus-1">
					<valueCodeableConcept>
						<coding>
							<system value="https://fhir.hl7.org.uk/CareConnect-ResidentialStatus-1"/>
							<code value="H"/>
							<display value="UK Resident"/>
						</coding>
					</valueCodeableConcept>
				</extension>
				<extension url="https://fhir.hl7.org.uk/StructureDefinition/Extension-CareConnect-TreatmentCategory-1">
					<valueCodeableConcept>
						<coding>
							<system value="https://fhir.hl7.org.uk/CareConnect-TreatmentCategory-1"/>
							<code value="8"/>
							<display value="Not applicable"/>
						</coding>
					</valueCodeableConcept>
				</extension>
				<extension url="https://fhir.hl7.org.uk/StructureDefinition/Extension-CareConnect-NHSCommunication-1">
						<extension url="language">
						<valueCodeableConcept>
							<coding>
								<system value="https://fhir.hl7.org.uk/CareConnect-HumanLanguage-1"/>
								<code value="en"/>
								<display value="English"/>
							</coding>
						</valueCodeableConcept>
					</extension>
					<extension url="preferred">
						<valueBoolean value="true"/>
					</extension>
					<extension url="modeOfCommunication">
						<valueCodeableConcept>
							<coding>
								<system value="https://fhir.hl7.org.uk/CareConnect-LanguageAbilityMode-1"/>
								<code value="ESP"/>
								<display value="Expressed spoken"/>
							</coding>
						</valueCodeableConcept>
					</extension>
					<extension url="modeOfCommunication">
						<valueCodeableConcept>
							<coding>
								<system value="https://fhir.hl7.org.uk/CareConnect-LanguageAbilityMode-1"/>
								<code value="RWR"/>
								<display value="Received written"/>
							</coding>
						</valueCodeableConcept>
					</extension>
					<extension url="communicationProficiency">
						<valueCodeableConcept>
							<coding>
								<system value="https://fhir.hl7.org.uk/CareConnect-LanguageAbilityProficiency-1"/>
								<code value="E"/>
								<display value="Excellent"/>
							</coding>
						</valueCodeableConcept>
					</extension>
					<extension url="interpreterRequired">
						<valueBoolean value="false"/>
					</extension>
				</extension>
				<identifier>
					<extension url="https://fhir.hl7.org.uk/StructureDefinition/Extension-CareConnect-NHSNumberVerificationStatus-1">
							<valueCodeableConcept>
							<coding>
								<system value="https://fhir.hl7.org.uk/CareConnect-NHSNumberVerificationStatus-1"/>
								<code value="01"/>
								<display value="Number present and verified"/>
							</coding>
						</valueCodeableConcept>
					</extension>
					<system value="https://fhir.nhs.uk/Id/nhs-number"/>
					<value value="1352465790"/>
				</identifier>
				<active value="true"/>
				<name>
					<use value="usual"/>
					<family value="Smith"/>
					<given value="Jon"/>
					<prefix value="Mr"/>
				</name>
				<gender value="male"/>
				<birthDate value="1957-01-01"/>
				<address>
					<use value="home"/>
					<line value="21, Grove Street"/>
					<city value="Overtown"/>
					<district value="Leeds"/>
					<postalCode value="LS21 1PF"/>
				</address>
				<contact>
					<relationship>
						<coding>
							<system value="https://fhir.hl7.org.uk/CareConnect-PersonRelationshipType-1"/>
							<code value="01"/>
							<display value="Spouse"/>
						</coding>
					</relationship>
					<name>
						<use value="usual"/>
						<family value="Smith"/>
						<given value="Sarah"/>
						<prefix value="Mrs"/>
					</name>
					<telecom>
						<system value="phone"/>
						<value value="0712345678"/>
						<use value="mobile"/>
					</telecom>
					<telecom>
						<system value="email"/>
						<value value="mrssmith@mymail.com"/>
					</telecom>
					<gender value="female"/>
				</contact>
				<managingOrganization>
					<reference value="urn:uuid:f9f24f89-646b-4a19-a6b1-cabfa3b612e1"/>
				</managingOrganization>
			</Patient>
		</resource>
	</entry>
		<entry>
		<!--The encounter which is the context for the document-->
		<fullUrl value="urn:uuid:4f36b35a-ad18-4ea9-a3fb-c893f709e88a"/>
		<resource>
			<Encounter>
				<id value="4f36b35a-ad18-4ea9-a3fb-c893f709e88a"/>
				<meta>
					<profile value="https://fhir.nhs.uk/StructureDefinition/CareConnect-COFE-Encounter-1"/>
				</meta>
				<identifier>
					<system value="https://fhir.nhs.uk/encounter-id"/>
					<value value="13c73015-d8fa-4844-8d68-4f856883eca8"/>
				</identifier>
				<status value="in-progress"/>
				<class value="inpatient"/>
				<type>
					<coding>
						<system value="http://snomed.info/sct"/>
						<code value="905131000000106"/>
						<display value="Agreeing on needs (procedure)"/>
					</coding>
				</type>
				<patient>
					<reference value="urn:uuid:31686b67-9f20-4644-9a54-193d2f91de57"/>
				</patient>
				<!--Physiotherapist who made assessment of patient's mobility-->
				<participant>
					<type>
						<coding>
							<system value="http://hl7.org/fhir/v3/ParticipationType"/>
							<code value="PPRF"/>
							<display value="primary performer"/>
						</coding>
					</type>
					<individual>
						<reference value="urn:uuid:9ff4a692-c1d7-4dd6-9e0b-f44e77348faf"/>
					</individual>
				</participant>
				<participant>
					<type>
						<coding>
							<system value="http://hl7.org/fhir/v3/ParticipationType"/>
							<code value="PART"/>
							<display value="Participation"/>
						</coding>
					</type>
					<individual>
						<reference value="urn:uuid:dd1e5b1d-a012-4169-8260-6bbe3599398a"/>
					</individual>
				</participant>
				<period>
					<start value="2017-05-04"/>
				</period>
				<hospitalization>
					<dischargeDisposition>
						<coding>
							<system value="http://hl7.org/fhir/discharge-disposition"/>
							<code value="home"/>
							<display value="Home"/>
						</coding>
					</dischargeDisposition>
				</hospitalization>
				<location>
					<location>
						<reference value="urn:uuid:01bb1ccc-577b-4a4a-9fb0-9c8fe9f21fa3"/>
					</location>
				</location>
				<serviceProvider>
					<reference value="urn:uuid:f9f24f89-646b-4a19-a6b1-cabfa3b612e1"/>
				</serviceProvider>
			</Encounter>
		</resource>
	</entry>
	<!--Hospital physiotherapist as the document author-->
	<entry>
		<fullUrl value="urn:uuid:9ff4a692-c1d7-4dd6-9e0b-f44e77348faf"/>
		<resource>
			<Practitioner>
				<id value="9ff4a692-c1d7-4dd6-9e0b-f44e77348faf"/>
				<meta>
					<profile value="https://fhir.hl7.org.uk/StructureDefinition/CareConnect-Practitioner-1"/>
				</meta>
				<name>
					<family value="Jones"/>
					<given value="Tess"/>
					<prefix value="Mrs"/>
				</name>
				<telecom>
					<system value="phone"/>
					<value value="01136323201"/>
					<use value="work"/>
				</telecom>
				<address>
				<line value="Physiotherapy Team"/>
				<line value="Floor B, Evesham Wing"/>
					<line value="Leeds General Infirmary"/>
					<line value="Great George Street"/>
					<city value="Leeds"/>
					<postalCode value="LS1 3EX"/>
				</address>
				<practitionerRole>
					<managingOrganization>
						<reference value="urn:uuid:1f20adb1-8c93-48df-b803-480bf3a1b5c8"/>
					</managingOrganization>
					<role>
						<coding>
							<system value="https://fhir.hl7.org.uk/CareConnect-SDSJobRoleName-1"/>
							<code value="R1110"/>
							<display value="Physiotherapist"/>
						</coding>
					</role>
				</practitionerRole>
			</Practitioner>
		</resource>
	</entry>
	<entry>
		<fullUrl value="urn:uuid:8ece9986-9af0-4882-b0cf-23a96ea7b509"/>
		<resource>
			<!-- Community Physiotherapist as a document recipient-->
			<Practitioner>
				<id value="8ece9986-9af0-4882-b0cf-23a96ea7b509"/>
				<meta>
					<profile value="https://fhir.hl7.org.uk/StructureDefinition/CareConnect-Practitioner-1"/>
				</meta>
				<name>
					<family value="Morris"/>
					<given value="Angela"/>
					<prefix value="Mrs"/>
				</name>
				<telecom>
					<system value="phone"/>
					<value value="01136323200"/>
					<use value="work"/>
				</telecom>
				<practitionerRole>
					<managingOrganization>
						<reference value="urn:uuid:1042a3c1-0a90-401e-a310-7f6035d2e07e"/>
					</managingOrganization>
					<role>
						<coding>
							<system value="https://fhir.hl7.org.uk/CareConnect-SDSJobRoleName-1"/>
							<code value="R1110"/>
							<display value="Physiotherapist"/>
						</coding>
						<text value="Community Physiotherapist"/>
					</role>
				</practitionerRole>
			</Practitioner>
		</resource>
	</entry>
	<!-- A person related to the patient as another document recipient -->
	<entry>
		<fullUrl value="urn:uuid:dd1e5b1d-a012-4169-8260-6bbe3599398a"/>
		<resource>
			<RelatedPerson>
				<id value="dd1e5b1d-a012-4169-8260-6bbe3599398a"/>
				<meta>
					<profile value="https://fhir.nhs.uk/StructureDefinition/cofe-relatedperson-1"/>
				</meta>
				<patient>
					<reference value="urn:uuid:31686b67-9f20-4644-9a54-193d2f91de57"/>
				</patient>
				<relationship>
					<coding>
						<system value="http://hl7.org/fhir/v3/RoleCode"/>
						<code value="WIFE"/>
						<display value="wife"/>
					</coding>
				</relationship>
				<name>
					<use value="usual"/>
					<family value="Smith"/>
					<given value="Sarah"/>
				</name>
				<telecom>
					<system value="phone"/>
					<value value="0712345678"/>
				</telecom>
				<telecom>
					<system value="email"/>
					<value value="mrssmith@mymail.com"/>
				</telecom>
				<gender value="female"/>
			</RelatedPerson>
		</resource>
	</entry>
	<entry>
	<!--Hospital physiotherapy team of which the document author is a member-->
		<fullUrl value="urn:uuid:1f20adb1-8c93-48df-b803-480bf3a1b5c8"/>
		<resource>
			<Organization>
				<id value="1f20adb1-8c93-48df-b803-480bf3a1b5c8"/>
				<meta>
					<!--Identifies the profile being used-->
					<profile value="https://fhir.hl7.org.uk/StructureDefinition/CareConnect-Organization-1"/>
				</meta>
				<!-- Type of organisation. -->
				<type>
					<coding>
						<system value="http://hl7.org/fhir/organization-type"/>
						<code value="team"/>
						<display value="Organizational team"/>
					</coding>
				</type>
				<name value="LGI Physiotherapy Team"/>
				<partOf>
					<reference value="urn:uuid:f9f24f89-646b-4a19-a6b1-cabfa3b612e1"/>
				</partOf>
			</Organization>
		</resource>
	</entry>
	<entry>
	<!--Community physiotherapy team of which the Community Physiotherapist document recipient is a member-->
		<fullUrl value="urn:uuid:1042a3c1-0a90-401e-a310-7f6035d2e07e"/>
		<resource>
			<Organization>
				<id value="1042a3c1-0a90-401e-a310-7f6035d2e07e"/>
				<meta>
					<!--Identifies the profile being used-->
					<profile value="https://fhir.hl7.org.uk/StructureDefinition/CareConnect-Organization-1"/>
				</meta>
				<!-- Type of organisation. -->
				<type>
					<coding>
						<system value="http://hl7.org/fhir/organization-type"/>
						<code value="team"/>
						<display value="Organizational team"/>
					</coding>
				</type>
				<name value="Leeds North Community Physiotherapy Team"/>
				<partOf>
					<reference value="urn:uuid:e1580b71-99bd-4c5b-8d54-9b420418135f"/>
				</partOf>
			</Organization>
		</resource>
	</entry>
	<entry>
		<fullUrl value="urn:uuid:f9f24f89-646b-4a19-a6b1-cabfa3b612e1"/>
		<!-- The NHS Tust which is the custodian of the document. -->
		<resource>
			<Organization>
				<id value="f9f24f89-646b-4a19-a6b1-cabfa3b612e1"/>
				<meta>
					<profile value="https://fhir.hl7.org.uk/StructureDefinition/CareConnect-Organization-1"/>
				</meta>
				<identifier>
					<system value="https://fhir.nhs.uk/Id/ods-organization-code"/>
					<value value="RR8"/>
				</identifier>
				<type>
					<coding>
						<system value="http://hl7.org/fhir/organization-type"/>
						<code value="prov"/>
						<display value="Healthcare Provider"/>
					</coding>
				</type>
				<name value="Leeds Teaching Hospitals NHS Trust"/>
				<telecom>
					<system value="phone"/>
					<value value="01134111223"/>
					<use value="work"/>
				</telecom>
				<telecom>
					<system value="email"/>
					<value value="switchboard@ltht.co.uk"/>
				</telecom>
				<address>
					<use value="work"/>
					<line value="Leeds General Infirmary"/>
					<line value="Great George Street"/>
					<line value="Leeds"/>
					<line value="LS1 3EX"/>
				</address>
				</Organization>
		</resource>
	</entry>
		<entry>
		<fullUrl value="urn:uuid:e1580b71-99bd-4c5b-8d54-9b420418135f"/>
		<resource>
			<Organization>
				<id value="e1580b71-99bd-4c5b-8d54-9b420418135f"/>
				<meta>
					<profile value="https://fhir.hl7.org.uk/StructureDefinition/CareConnect-Organization-1"/>
				</meta>
				<identifier>
					<system value="https://fhir.nhs.uk/Id/ods-organization-code"/>
					<value value="RY6"/>
				</identifier>
				<type>
					<coding>
						<system value="http://hl7.org/fhir/organization-type"/>
						<code value="prov"/>
						<display value="Healthcare Provider"/>
					</coding>
				</type>
				<name value="Leeds Community Healthcare NHS Trust"/>
				<telecom>
					<system value="phone"/>
					<value value="01136323200"/>
					<use value="work"/>
				</telecom>
				<address>
					<line value="Leeds Community Healthcare NHS Trust"/>
					<line value="First Floor, Stockdale House"/>
					<line value="Headingley Office Park"/>
					<line value="Victoria Road"/>
					<city value="Leeds"/>
					<postalCode value="LS6 1PF"/>
				</address>
			</Organization>
		</resource>
	</entry>
	<entry>
		<fullUrl value="urn:uuid:34966627-89da-4bbf-ab49-2c2e0eee9331"/>
		<resource>
			<Location>
				<id value="34966627-89da-4bbf-ab49-2c2e0eee9331"/>
				<meta>
					<profile value="https://fhir.hl7.org.uk/StructureDefinition/CareConnect-Location-1"/>
				</meta>
				<identifier>
					<system value="https://fhir.nhs.uk/Id/ods-organization-code"/>
					<value value="RR801"/>
				</identifier>
				<name value="Leeds General Infirmary"/>
				<telecom>
					<system value="phone"/>
					<value value="01134111223"/>
					<use value="work"/>
				</telecom>
				<telecom>
					<system value="email"/>
					<value value="lgiswitchboard@ltht.co.uk"/>
				</telecom>
				<address>
					<use value="work"/>
					<line value="Great George Street"/>
					<line value="Leeds"/>
					<line value="LS1 3EX"/>
				</address>
				<managingOrganization>
					<reference value="urn:uuid:f9f24f89-646b-4a19-a6b1-cabfa3b612e1"/>
				</managingOrganization>
			</Location>
		</resource>
	</entry>
	<entry>
		<fullUrl value="urn:uuid:01bb1ccc-577b-4a4a-9fb0-9c8fe9f21fa3"/>
		<resource>
			<Location>
				<id value="01bb1ccc-577b-4a4a-9fb0-9c8fe9f21fa3"/>
				<meta>
					<profile value="https://fhir.hl7.org.uk/StructureDefinition/CareConnect-Location-1"/>
				</meta>
				<name value="Cranmer Ward"/>
				<telecom>
					<system value="phone"/>
					<value value="01134111229"/>
					<use value="work"/>
				</telecom>
				<address>
					<use value="work"/>
					<line value="B Floor, West Wing"/>
					<line value="Leeds General Infirmary"/>
					<line value="Great George Street"/>
					<line value="Leeds"/>
					<line value="LS1 3EX"/>
				</address>
				<managingOrganization>
					<reference value="urn:uuid:f9f24f89-646b-4a19-a6b1-cabfa3b612e1"/>
				</managingOrganization>
				<partOf>
					<reference value="urn:uuid:34966627-89da-4bbf-ab49-2c2e0eee9331"/>
				</partOf>
			</Location>
		</resource>
	</entry>
	<entry>
		<fullUrl value="urn:uuid:1868a8af-feaf-4f11-90d1-66da928d6bbc"/>
		<resource>
			<Binary>
				<id value="1868a8af-feaf-4f11-90d1-66da928d6bbc"/>
				<meta>
					<profile value="https://fhir.nhs.uk/StructureDefinition/cofe-binary-1"/>
				</meta>
				<contentType value="application/pdf"/>
				<content value="JVBERi0xLjUNCiW1tbW1DQoxIDAgb2JqDQo8PC9UeXBlL0NhdGFsb2cvUGFnZXMgMiAwIFIvTGFu
Zyhlbi1HQikgL1N0cnVjdFRyZWVSb290IDIxIDAgUi9NYXJrSW5mbzw8L01hcmtlZCB0cnVlPj4+
Pg0KZW5kb2JqDQoyIDAgb2JqDQo8PC9UeXBlL1BhZ2VzL0NvdW50IDEvS2lkc1sgMyAwIFJdID4+
DQplbmRvYmoNCjMgMCBvYmoNCjw8L1R5cGUvUGFnZS9QYXJlbnQgMiAwIFIvUmVzb3VyY2VzPDwv
Rm9udDw8L0YxIDUgMCBSL0YyIDcgMCBSL0YzIDkgMCBSL0Y0IDExIDAgUi9GNSAxNiAwIFIvRjYg
MTggMCBSPj4vUHJvY1NldFsvUERGL1RleHQvSW1hZ2VCL0ltYWdlQy9JbWFnZUldID4+L01lZGlh
Qm94WyAwIDAgODQxLjYgNTk1LjJdIC9Db250ZW50cyA0IDAgUi9Hcm91cDw8L1R5cGUvR3JvdXAv
Uy9UcmFuc3BhcmVuY3kvQ1MvRGV2aWNlUkdCPj4vVGFicy9TL1N0cnVjdFBhcmVudHMgMD4+DQpl
bmRvYmoNCjQgMCBvYmoNCjw8L0ZpbHRlci9GbGF0ZURlY29kZS9MZW5ndGggNDA4OT4+DQpzdHJl
YW0NCniczVxbb9w2Fn434P8wj6NFRhHvUlAUyKVJWzRtdmOgD+0+eJ2kCdZ2Wztt4X+/50JKlERK
8kgutkWnY4nU+Xh47jya3eM3uy++ePz6+TcvdtWXX+6evXi+q8oa/nNG4Tcjdje/nJ4oVVppdkbD
Dblzdamd2Qlb1nDx5v3pyYd/nJ7svnr9fPc7j8WhqhSGhu6EpEE//mN3DcMiksKTVLaspJ+jdlaX
FT5e0sXe4+PJ0k/+PYJH8wO8bj5TfnZ2evL4pdiJqtRw4+zD6YnYVfCv6ACYEtZ9dnV6Uu1+wY9X
pyc/7d8W/96dfXt68hU84J8JJGpDJDAxD+R1Id3+m6K2+7PC1vuvZ3DpDXE5WdYuAwwERSq3O7v4
af9oN4PJbIiprkhQMsz6thD1/tfioPbXM5jshphEVZUiB2nAnBQW57EIoUoXFE4AgkbmFA6HdhoH
f+UVrm6fbgklrbKpy3ltazoeBWg0OUBLs0gmWeSJJ1n0rHASd83ub2DrJOydaIZ8G4ET1VHo0hsI
M5XKCPoBJB2Yi5JeiTlQYkNQxpV5ST/MIZEbIrHAnmmdOy8OUs4qnVAbgqoBVH00e/SWSOpSZJDs
DqKsBAmPaOYwme0wySqjbREg4+YA2Q0BCV3ahTZyDMRtCcStMNUiWFMpa3CAwVh7r5Qx1jS2NdZ1
NREcBZMrVVVa1UZHBo39bHAUWcQWHs0P8O5hsFsASU69Kmq9f18chGNj/a5o/J9swec2VIrjoKZ3
1FXsC/PxE5unywLkBXFKO49QbomwaUqdtVULxE4Gw6mqpmyC1OnaoFzlYnIYWrdSh2MnggQZ7KGC
dbVL1Q7TgXnBiwM8D5Dne4D3kLtAP8mp7wvjIAK2FYTnrgLGHUTl+CqFD0+Kg5nfWXsUWpVEa5rS
5CLkKHAQykhtjWuqOXDuKHCZtEIsNrlJLMHWKSZqICAxaL8oK8BnB4kIA1TjFWQ0IJVLSkgThwOM
CRnkcIAn4YNjePZA7NEViHAf89nE/SasQYA3MrIH0d/nJSTvj4PzGKC/zwtI3ped5ibwSWnZ4OYH
uFKrdhcA24DJYYDfhdSAhM+KMYYBvIjkACaRBamquozuuwb+GY9pcKd4Hbp25NtiYeH7vIzM/aEN
7IkK3+dFZO6LGYyuodl5cRtUPgQtxmdVORvbjHNOnJeYNmUgfdlC4CKHWv2icIZN4UVxaOT+D3TO
V+Dwet76cyHQeApwic+L4LLfF6YBP2k136Y/3/WNxCrcAgIKUKk07ow1wnAPKLqWwRr2Y6K2pOKc
ECcqj5TmqRTWdEQPTBYqibWXDuoRf1ZRNRU5kySHDhuTsiTeSVJRxHS3LVWwKJgo/R0LrHXZpEnF
OyirbalinJdZn9iUkqws+vYkJVfIav+oMBp1HAJegX9r/HiCqbrCb9uuWxpZZm1SXrfZdmpgWtUa
E3hARrfFyHrSzLqdWScCo0kTWgHqer0N/QEZ+hcMMHwrJEIZ23ksaiEN+qIM6lkL6tkcLGiez3Jk
Qz3iViiSmCcNaRrzd4VUPh3jz3dFvb+Fb5WXXKp48y22RxfE5Y+FFPtPhUJ+w7dfYBaP/xp3jcq/
/JTf4A6N+4zXzlElLvHP25z0H79SCfEWzFy2O9sQVJRTpgl+X9QVs+MtF1Nbdt4UyoFMA9+YR5+3
h6YgdDNHSKq3B8BJPRdLqfH5S3/ePTJOtgYa+Am57hDt08I2bAJAhizKHnyNatWs7Fj/YGPwH/g2
9porIcJOqBzAecVnonOhkx6rfTRR3a8iymqfQXyWlbjjCWqJEpchyBaExT2v+scTt5IzmSX7sw1B
CG6yBOMzMNDysPjtUaAY1w+zbJ2raaepfVFVz8SXm69QQjKbFaoH2FcJ12yO3ptCS/Z8d7C3jRdn
8m602eTiPnY7TnaevWbrBucs/tHIVSXKOiMLGG8bq5JHxdvQpog1zbVMiGGsd4mvCq39nesk7yhe
4LF0CE+jPhTKc5RGQnAojB9PF7Jp0/Gr1NpgaebvE0atHdajMgQ7+8K8yWbCKwA4weFAEkA2XVxD
0JX5QGBJVnw8bQMKJN3fuFgDCWQ1obHzGfIK2rLKa2w2T15Dz0K6k6Hns2Xc1wfQIiwgZpbaOx94
AP0xRmMNOrPsJw9BsM4SjI6d1UNIFNgKtzQES511qHCEVZWNUv7T98GB4UWzYOlA1AGlRiWrwb3n
hUOmFrTOJh4QzdlUA9pBYAZ7QK+Eea8Cj9Pszy8hzaBv4MyFxTpEX3DHUFwEpevHcaWLSUOmww/k
z/e36Mdu0c9dvUd3eV0c6kBMgMb8gFHmH+3FC8L5KzoEGD+Fpk6gkXVN1i+GM1pTlyAqTWcs8L/p
itG43k5THU/N5rSTWaJykEUxwq+QBVTx4UIRZYWUKl53+SLV0W8KrXx+eFYcnMYQjuIyLBblcsWj
oWKvVdNDOpEj2oYUh1kqwQM2UyzVcYE9mupoKkSA9yoOOUknNBHQp8ARLOdQFBWHbalqzzAGoZrH
ONYbGZu1uKWj0/wJBm9CpeaQOqLy876w+5fFQVe9clhoaEAeUBZAjOG/+6ON6A1+DjdjNlJcTKWh
y37RjL51qQYN/rnYfs1a1WWtFoquNwYg7KYzBjm5TRSPo4lZZzNpCkSNRwyrbcEnTEFCfTlnDI4G
6w19jHXeGjC1YA1yPJVjW9BN5J1fXkzwtqDDOXfQtppibal8EXMmEWevJtNIPPPqkZlOJdZSlDBT
Pvi6pBS53UqlDKvJQRQGMWFvVXSuNTzsqvDv5gEAWOqm6gFIxNCryTg1IvMAwu9PK3pkHmLXfFy3
zPqwQVdNHUd3OeMzrv/TRLXGoFd0/s4wsTECVFTIXp2f7TY1n/EFNuz8SYaczL2PUcLZID8BL/IT
aQyNvvWVo9B18QkmYRgNz7/O+YLj1ymsof2M1znrDPx+zDkDPXIGHucKZxDj/H86K1y7PgU+WUxu
wzZUmnLAxFWngqvxOEPHJMukzxsDR0TnjMH4BSOaGCnJvQyBqiWucVND8B0agqirINZ5GE138ip/
1GqEJrvdW828ujPH59TdjtWdMbaCcS9VH3Ac05KoBk+ay0X2qD7P0vsjKmpUekezEKp5eH/qAAC0
e1z/N9VDlP/X8Eg1DUaqC/fRK46VS7yoGysOTjxWbyxS21RtFpdLjsItZI3FvBj3vIIwZ+cUpB4r
CCE8Uj96nM1J11EEuCcvJjDuXFpHgDrxYgJZrd6SrpSytFNbu/r5/W1JGaKNKRqHuUFMlCpCbC8H
pLtqzWX7DdXqDgf8XBSjN2BWglOKXlOIwSXrc8Pog+KziTBsYISjU+/P+Nbo2B6sWYQ/ZF1gD3q6
3iRK2sEkygbPFH118x1Vya8wyueC+qCOf3P+GYMxvPqnVwxObGHNL1BJeNg5PeCS5nboegV13IqY
dLwMYFKFrYAHfOO/quyu1vTOTWN6dV/s7u+OP5SkPnp//AH3qqqS7flHii2mGh6B5B1H1SDfo0if
JIIjeJaBVAnySWb1dUOvPvSeuhuMffzSJDutJL3z0Jv6FEWWM7XbYK6Ea69YtGJChr7PYXdoCPfY
FaYBBysfU82PtWSw47GffBTT60TrSpDsXvkqA2HsfAXdaoCnVW8wPeID8Fv4C52L7mZFznsJB7Tq
xQLdE4c71MqIbvBYMVowSm7lLP/6wPMco5QVA6bCZZwRJeHxxmWf0ygsZ09KUzfWjcb+iIoerR53
6FFmvpb42xmLSGmFCjrUnBBXdcIQb/Xwtc2wcK08wEvcDR77DToKGsUCQBtFQ5lp0YruMhCNEdix
3NuBUoLlwV0ocwszphnNohmTp5xGLLY2spG9A6fQGHiQ4fgovnKFrxtSWkA253N3tkKJMzdjodfi
qTmbJHRFeXNEe6FJ8r2N8cw3dDZMrah35FLICtEOXYRkpL+bHEd/TG76b5jY8HN4cMLgmWbG3rHR
yHgj0CDwwvEKDtmhdLY2xaZBz1k89DUYLEctuMQLWj99Y3wPuUaNXWh54GN5lYsbBKSt8OcX0qf0
B1H7P64KA0J4XWiz9Jx+R9VGbjSgIVfwjP35DWbHOZ2WtaMNijGtDi6kodJQG1zwK3mTwYUaso8r
USn2SXzdj5G+KoTyPHoPoXKF7RSuoReJ6wYDaXyRGKTjCl8kpo/A0AMJh8nrt62xJzcmNr3/ureA
pOaHBdAr0V7Cb7ANdIeY3qIEs5RGMv4xFxPx66Dxs3KiXJvR0KhYTbQjNx6dd/7JzSqdfYkz+hCW
sDeh2792K+B7HweF8R2NjaxWJk6JAxH+pPIa28L/5iQZ4oO6v8xHMCFu5B9FTwyrK9tdth98/7p9
OyCexUukywnbxM8csorebP8rnO/D0jtSZdYEGcy0c1s8FkGzWIfwx1Z0UPeXgEcDbzTushKsHB/x
T9YpBA8h/FOShgs0JjTiU+Esa9c1jmVtorFopfCRiQfB5K8LcLDvUVFdNMKr7BsYKPmpH6jSd+vt
uhnSY03PJUxKYhNxb5nTvLOL1RdPXeqwIf8q6qAhrAiRtkRK1UXxLEckO90bu5Hi8GfXaZBwd0gm
ETG0UhfJq1e10KYQ4gOcZExPgf0rMG0vw7SM9wGBAcFnRiTYiESZxEWUaD3C33eIUwlfLKfQVPsJ
3S+QXBeNbeebkTp3yN4FnJHaaROnB902+L3JKB6kb3qw0bkAR7sa3WNvbJyT9TNMGzZqKsPsZWm5
mJp+4KpH9T47lnlqw10p47W0W8LoS29X04+xUtEPCURPmdY9t9xu4U/UbW60siE+M7mlmVuw0BQr
dAMT5i8zk5tW0iTGjKqXGynRlO1DX+dkV9OvwcRDSS/6m8wV/nRsMiEFDZ1UxM8emb5R1MHfiUIc
e/RthauGFmxU1ojg9aKPTKIwX/3pfD81APzRaizbpch+x4jjMCYKiCIXMeLD78Gsxaj4CbkwAU9w
neuzOp/VCGpCzY3tHzo19L4hfuYPRsy4KRcnyHbevds2wAiJZJ1zcHwjqY+BMSqwhxOnNzZuc5V0
4O1B0sT7vgxJP3yxECa2sLes1GU9ATLqaYxmyTBtOSM1WJVqMSN1QwneEoRRh2A0ixHKe/6YESbW
9VKMLI/OYI46LY923EiE046WRoftlqFKY8NbwlGPZ3woehcOquEzigzZctGc34JnplCGQptxa8Yq
3EJqlOgI96wOMV/ndEiPdIgAHq9BEUQs27X9PFx4o0Oi89x7PCsBQIAHmVUEgFo46SSCTtzoI3rF
ckEHwsYQpW4wfMpv4wYk+Fc+IhJ0otdxoXsFddRffuWjWPykNqPrti+LZiVaJtaBxSniYfmhsGol
+xq/6B3dJsisbzQxmgrId11Xy1vv0sOYPwuF70AI0Xbxb7wW7RqymA/ILl1L9ACLDI33Z2xopn2M
GXlBAnikD8SDuKUecAk6O/KAAd1x/m8eX498P1OyE5mSrfxP9yQCvP8BASppUg0KZW5kc3RyZWFt
DQplbmRvYmoNCjUgMCBvYmoNCjw8L1R5cGUvRm9udC9TdWJ0eXBlL1RydWVUeXBlL05hbWUvRjEv
QmFzZUZvbnQvQUJDREVFK1ZlcmRhbmEsQm9sZC9FbmNvZGluZy9XaW5BbnNpRW5jb2RpbmcvRm9u
dERlc2NyaXB0b3IgNiAwIFIvRmlyc3RDaGFyIDMyL0xhc3RDaGFyIDEyMS9XaWR0aHMgMTIxIDAg
Uj4+DQplbmRvYmoNCjYgMCBvYmoNCjw8L1R5cGUvRm9udERlc2NyaXB0b3IvRm9udE5hbWUvQUJD
REVFK1ZlcmRhbmEsQm9sZC9GbGFncyAzMi9JdGFsaWNBbmdsZSAwL0FzY2VudCAxMDA1L0Rlc2Nl
bnQgLTIwNy9DYXBIZWlnaHQgNzY1L0F2Z1dpZHRoIDU2OC9NYXhXaWR0aCAyMjU3L0ZvbnRXZWln
aHQgNzAwL1hIZWlnaHQgMjUwL1N0ZW1WIDU2L0ZvbnRCQm94WyAtNTUwIC0yMDcgMTcwNyA3NjVd
IC9Gb250RmlsZTIgMTE5IDAgUj4+DQplbmRvYmoNCjcgMCBvYmoNCjw8L1R5cGUvRm9udC9TdWJ0
eXBlL1RydWVUeXBlL05hbWUvRjIvQmFzZUZvbnQvQUJDREVFK1ZlcmRhbmEsSXRhbGljL0VuY29k
aW5nL1dpbkFuc2lFbmNvZGluZy9Gb250RGVzY3JpcHRvciA4IDAgUi9GaXJzdENoYXIgMzIvTGFz
dENoYXIgMTIxL1dpZHRocyAxMjIgMCBSPj4NCmVuZG9iag0KOCAwIG9iag0KPDwvVHlwZS9Gb250
RGVzY3JpcHRvci9Gb250TmFtZS9BQkNERUUrVmVyZGFuYSxJdGFsaWMvRmxhZ3MgMzIvSXRhbGlj
QW5nbGUgLTEzL0FzY2VudCAxMDA1L0Rlc2NlbnQgLTIwNy9DYXBIZWlnaHQgNzY1L0F2Z1dpZHRo
IDUwOC9NYXhXaWR0aCAxOTE0L0ZvbnRXZWlnaHQgNDAwL1hIZWlnaHQgMjUwL1N0ZW1WIDUwL0Zv
bnRCQm94WyAtNDUzIC0yMDcgMTQ2MSA3NjVdIC9Gb250RmlsZTIgMTIzIDAgUj4+DQplbmRvYmoN
CjkgMCBvYmoNCjw8L1R5cGUvRm9udC9TdWJ0eXBlL1RydWVUeXBlL05hbWUvRjMvQmFzZUZvbnQv
QUJDREVFK1ZlcmRhbmEsQm9sZEl0YWxpYy9FbmNvZGluZy9XaW5BbnNpRW5jb2RpbmcvRm9udERl
c2NyaXB0b3IgMTAgMCBSL0ZpcnN0Q2hhciA0OC9MYXN0Q2hhciA1Ny9XaWR0aHMgMTI0IDAgUj4+
DQplbmRvYmoNCjEwIDAgb2JqDQo8PC9UeXBlL0ZvbnREZXNjcmlwdG9yL0ZvbnROYW1lL0FCQ0RF
RStWZXJkYW5hLEJvbGRJdGFsaWMvRmxhZ3MgMzIvSXRhbGljQW5nbGUgLTEzL0FzY2VudCAxMDA1
L0Rlc2NlbnQgLTIwNy9DYXBIZWlnaHQgNzY1L0F2Z1dpZHRoIDU2OC9NYXhXaWR0aCAyMjQyL0Zv
bnRXZWlnaHQgNzAwL1hIZWlnaHQgMjUwL1N0ZW1WIDU2L0ZvbnRCQm94WyAtNTM3IC0yMDcgMTcw
NSA3NjVdIC9Gb250RmlsZTIgMTI1IDAgUj4+DQplbmRvYmoNCjExIDAgb2JqDQo8PC9UeXBlL0Zv
bnQvU3VidHlwZS9UeXBlMC9CYXNlRm9udC9BQkNERUUrVmVyZGFuYSxCb2xkL0VuY29kaW5nL0lk
ZW50aXR5LUgvRGVzY2VuZGFudEZvbnRzIDEyIDAgUi9Ub1VuaWNvZGUgMTE4IDAgUj4+DQplbmRv
YmoNCjEyIDAgb2JqDQpbIDEzIDAgUl0gDQplbmRvYmoNCjEzIDAgb2JqDQo8PC9CYXNlRm9udC9B
QkNERUUrVmVyZGFuYSxCb2xkL1N1YnR5cGUvQ0lERm9udFR5cGUyL1R5cGUvRm9udC9DSURUb0dJ
RE1hcC9JZGVudGl0eS9EVyAxMDAwL0NJRFN5c3RlbUluZm8gMTQgMCBSL0ZvbnREZXNjcmlwdG9y
IDE1IDAgUi9XIDEyMCAwIFI+Pg0KZW5kb2JqDQoxNCAwIG9iag0KPDwvT3JkZXJpbmcoSWRlbnRp
dHkpIC9SZWdpc3RyeShBZG9iZSkgL1N1cHBsZW1lbnQgMD4+DQplbmRvYmoNCjE1IDAgb2JqDQo8
PC9UeXBlL0ZvbnREZXNjcmlwdG9yL0ZvbnROYW1lL0FCQ0RFRStWZXJkYW5hLEJvbGQvRmxhZ3Mg
MzIvSXRhbGljQW5nbGUgMC9Bc2NlbnQgMTAwNS9EZXNjZW50IC0yMDcvQ2FwSGVpZ2h0IDc2NS9B
dmdXaWR0aCA1NjgvTWF4V2lkdGggMjI1Ny9Gb250V2VpZ2h0IDcwMC9YSGVpZ2h0IDI1MC9TdGVt
ViA1Ni9Gb250QkJveFsgLTU1MCAtMjA3IDE3MDcgNzY1XSAvRm9udEZpbGUyIDExOSAwIFI+Pg0K
ZW5kb2JqDQoxNiAwIG9iag0KPDwvVHlwZS9Gb250L1N1YnR5cGUvVHJ1ZVR5cGUvTmFtZS9GNS9C
YXNlRm9udC9BQkNERUUrVmVyZGFuYS9FbmNvZGluZy9XaW5BbnNpRW5jb2RpbmcvRm9udERlc2Ny
aXB0b3IgMTcgMCBSL0ZpcnN0Q2hhciAzMi9MYXN0Q2hhciAxMjEvV2lkdGhzIDEyNiAwIFI+Pg0K
ZW5kb2JqDQoxNyAwIG9iag0KPDwvVHlwZS9Gb250RGVzY3JpcHRvci9Gb250TmFtZS9BQkNERUUr
VmVyZGFuYS9GbGFncyAzMi9JdGFsaWNBbmdsZSAwL0FzY2VudCAxMDA1L0Rlc2NlbnQgLTIwNy9D
YXBIZWlnaHQgNzY1L0F2Z1dpZHRoIDUwOC9NYXhXaWR0aCAyMDA2L0ZvbnRXZWlnaHQgNDAwL1hI
ZWlnaHQgMjUwL1N0ZW1WIDUwL0ZvbnRCQm94WyAtNTYwIC0yMDcgMTQ0NyA3NjVdIC9Gb250Rmls
ZTIgMTI3IDAgUj4+DQplbmRvYmoNCjE4IDAgb2JqDQo8PC9UeXBlL0ZvbnQvU3VidHlwZS9UcnVl
VHlwZS9OYW1lL0Y2L0Jhc2VGb250L0FyaWFsL0VuY29kaW5nL1dpbkFuc2lFbmNvZGluZy9Gb250
RGVzY3JpcHRvciAxOSAwIFIvRmlyc3RDaGFyIDMyL0xhc3RDaGFyIDMyL1dpZHRocyAxMjggMCBS
Pj4NCmVuZG9iag0KMTkgMCBvYmoNCjw8L1R5cGUvRm9udERlc2NyaXB0b3IvRm9udE5hbWUvQXJp
YWwvRmxhZ3MgMzIvSXRhbGljQW5nbGUgMC9Bc2NlbnQgOTA1L0Rlc2NlbnQgLTIxMC9DYXBIZWln
aHQgNzI4L0F2Z1dpZHRoIDQ0MS9NYXhXaWR0aCAyNjY1L0ZvbnRXZWlnaHQgNDAwL1hIZWlnaHQg
MjUwL0xlYWRpbmcgMzMvU3RlbVYgNDQvRm9udEJCb3hbIC02NjUgLTIxMCAyMDAwIDcyOF0gPj4N
CmVuZG9iag0KMjAgMCBvYmoNCjw8L0F1dGhvcihLYXRpZSBXaGVhdGxleSkgL0NyZWF0b3Io/v8A
TQBpAGMAcgBvAHMAbwBmAHQArgAgAFcAbwByAGQAIAAyADAAMQAwKSAvQ3JlYXRpb25EYXRlKEQ6
MjAxNzA3MTQxMjU1NDArMDEnMDAnKSAvTW9kRGF0ZShEOjIwMTcwNzE0MTI1NTQwKzAxJzAwJykg
L1Byb2R1Y2VyKP7/AE0AaQBjAHIAbwBzAG8AZgB0AK4AIABXAG8AcgBkACAAMgAwADEAMCkgPj4N
CmVuZG9iag0KMzAgMCBvYmoNCjw8L1R5cGUvT2JqU3RtL04gOTYvRmlyc3QgNzY2L0ZpbHRlci9G
bGF0ZURlY29kZS9MZW5ndGggMTQ2MD4+DQpzdHJlYW0NCnicrVnbahxJDH0P5B/0B1P3C4TAsk7I
YmKCbdiHsA9ju9ceYs+YyRiSv9+jqerx7FpVbXoDwdXd05KOpCNVl2ISKbKavCYTSWtD1pKOgawj
gycWD5QjiwchkY3kDN735JImm8k7XCryGW8mCj6R0xSNIRMoRqjwlHwm5yhrLJ5ywAILim8T1mTJ
sWHo9AprNuQyaQMRF0hbBWx43wb8bkg7Hcl7rFDuHWkPQ8CuPfTAug5Q5qEv5EwB+qLH79CXVCJc
6gQ9Dnqywe/wWWkF2FijpgC82lgKEWvC84AQIADBYk2ZoiJjAQYuGKc8/MQaDEHUeO0IATIeNxH6
Avxh/0OKCARiC38QVRMzAgN9CXpgwmT4E6GP45I41vCHQ6tiIvyzHJfkscKfhDzAEEGltfAnISkW
TsJ1y3EBFMt5SZDzrC8jachFRsZC5BQggdCPENsIoxlyCf5l6E1QnmEnI8WAaDOEkVSnOFjIgVN4
SyuF/HK6lGUiIA8K6TIceNw4qxFhsMVZWNcK4o5JpQIu4GxmBoAmGjFH3JAdhScB4WDeuQgoWsNU
hMMa8XQJQQMzcJGZIlCTOYeaqaLYAnKqEPWMVe/Zg+QjdUgLVk4XyOMMpxGkwY9Iro+IPJLvI9Lx
7t3iC/Ne0fniYnHxuFwvLn8+DouL3fbpevfhfnhYfLklu//9lNT792/f/Fvky4v3T78S6AAZQKDw
Fx0UPAuHKnx5IkkbrshzrkkskjzC9Dq88aWIiBcBRCwRPZQdKg3FhXoizmWcgd/agt818ftX4tfp
pYwccBTQPtnGzAEcCuDYBJxeCdjYlzIiYLPvjEzMWRHOe8Douw3AB/lJwM8RNmOEL89FxLEEyZTF
l6VQ1TWpatyodHl1P4h6Q0vW2V4QfpGE6TrtXPHPNzF2+4DJokw/uS41jeWeMatmGPNNCk1FptCh
QJLkfbfjWC3K6D5Y2zTmusbEpjBlrJ3zfmSK4xWSaLjLGWtFmYk0Njnj+5xxM4yFuZwpjldI87pF
qfDK6prCirerUPbe7z9r+ctVEg59YbG2Q7cD8YdmA2kIPWNOrO0pY839LPTzVByvkET5LqmcWNsh
dcHGJqmi7hoTa3vKmJkbmbLxxuZ+F7uccWJtx34aY5Mzsc8ZsbanjM3lTHG8QhIN9znjRZl+GlOT
M6nPGfGrfMrYXM4UxyskEWyfM+IHYuqnMTU5k/qcERvhlLG5nCmOV0jz9oPSAmu9V3LXTFbYXb2f
tBgFsbX39xIvdugJGbFRToDz8gnnIGTkL6cZ6MT+MWVIrOMJQ/IhecKQfG7qGxLZzTONnpBIhjx2
M7kkeGDS4B4PTDrmgsijSXNNqvM0pmdOpOCkuWZ74VFPz5xI3klzzQaTDz1bbDA1tWPMx2CMKGUH
uvtUEAuJ51BdD3Rzp+J5V8+eWITT9pqbFU/TevbE+p221zzs8KyuZ0+s/Wl7zfxNMqLsxjXsYzhG
mPM2oVx1quYprN+XgtzLDsRYbnfidKHMYMqhi2fZ+6XcpboFFmS5lEEur+TySi6e51ISuSjL5WCV
y0mtBHM/Vd07VrEdYbncDsP5ZrNbnG/uh8/LRx60MmpgHtb7X3nkyk/K0KvG5/Dr2fBjdzr8JF1V
f4Su9WY3LM74z4f1zfPNJV692vxYXAzXu8WnYXkzbMs1y4zXf6zvV+vh4m7JCPnBb2toWO5Wm3W9
3+5Wfy9xsb/7c7P9drXZfFucbK6fHoBp/+T73TDsStg/L6+3m6P73+/w9+j+ZLW839wePbi4X90M
R+8WO3jtdrt8WHxc3T5th+rr2dPD96/E/wXwHN3/TH9ftRyPW//3cjwKbSzHw8fGUpCVSVadMdXp
TZ2r1IlFnSUcyCsuRaCcZus5sZ7g6tmonlrqeaB+qddv4Pp1+osKou7r44Y77oTjFjU2+rEBj41x
bFjPlfT2zT+Q881wDQplbmRzdHJlYW0NCmVuZG9iag0KMTE4IDAgb2JqDQo8PC9GaWx0ZXIvRmxh
dGVEZWNvZGUvTGVuZ3RoIDIyND4+DQpzdHJlYW0NCnicXZDBasMwDIbvfgod20Nx0l1DYGsZ5LBu
LNsDOLaSGRbZKM4hbz/ZCx1MYIP8/5/4LX3prh35BPqNg+0xwejJMS5hZYsw4ORJ1RU4b9PeldvO
JiotcL8tCeeOxqCaBvS7iEviDQ6PLgx4VPqVHbKnCQ6fl176fo3xG2ekBJVqW3A4yqAXE29mRtAF
O3VOdJ+2kzB/jo8tIpxLX/+GscHhEo1FNjShaiqpFppnqVYhuX/6Tg2j/TKc3U+1uM9V/VDc+3vm
8vfuoezKLHnKDkqQHMET3tcUQ8xUPj8JSW8rDQplbmRzdHJlYW0NCmVuZG9iag0KMTE5IDAgb2Jq
DQo8PC9GaWx0ZXIvRmxhdGVEZWNvZGUvTGVuZ3RoIDE3NzI0L0xlbmd0aDEgNTE3MDQ+Pg0Kc3Ry
ZWFtDQp4nOx9CXxURdbvqbt3315u7510ku5OdxKSTuhsJCEE0mSDJGICCZIAMQmEVZAouLCZjIMg
wWUARxFwPh13nNGOiBJlEGdxnHEcxWUY19HBXVBHcfmEdL9Tt0NAx3n85vcm7z38+nTX/96691Td
qrrnX+dUr0AAwIbAQWNVU+2kyDePhgEeXAPgWDOpqroG0tl9AP0/Qa2USY0NTWKxoQzzqAMlk5qm
V7ztfz8d8+9j/oZzmpsm57704s8BZB0A+1hDUzB/+Wu3HAUgf8XzHedVTWlZ8Y81SwEMTwHwb85d
2tl9zDpwG8CFjajz/NxLV3jO887PAbj8U8x/Nr97wdJV1R/7Abox8Y8v6FzeDQ7Q4PV6sT5lwZKV
85+67zITwKq3AXzZC7uWXh59bfAmAOs9AK33LJzX2fXGiguuw7pmo37RQjxgatQ+gPkbMO9fuHTF
5UmZia8CMCUA0otLls3tfPU37/4M4GcKgNi9tPPybsEvVKD+XtT3XNi5dN65Hw90AtyJ15ff7F62
fEX0cngB29NBz3dfPK/7jdWvHwS4BNvDaoCOLS/ev/6eDYPtxrIvwCUBlV8uafqabp/a/NvfHt8+
uFV/j7QVdTXAQEywnCRHpuE4leD5i/T3qDWdLrvpEfYRmDhUhgEFQjAdd3j+8dgRbhOzD3iQ+O18
AVaZFtuyt8ILLC8BI0scy3Mcw90GQjQEnll0RGnBKU0eD+DDYxFSIq3wR0km93uA/Bc9x83lD9Ke
ApGGmoTXUBNbAk9zu+Fu+B7hWuEJTHedzDNvg489BBeezPNh6ObDRIvbAUzXYGrGdMfQuZ1D24V4
jbe+r34qQhE4Vb0/wgLhDtiv7hfCfmEt5nfDfu58WM1dBFnq8QTYL/4Uzz2J6RlYwL8e01fPPQBL
+RWQeTKvEaHiX13zdOFb4Dy1r3ughd8GM/lGaGE7IaDu74ZdOEa3Dvd/H+ySLoNd9Dh/haq/ix5n
v4Fd3OPQzt6J5XbDbXi/UobrH3NqPy7/GUGbuvn/dRviEpe4xCUu/z8I+wghVmtWzPs7MaAgBkyq
YLxDsmJaMmQYwTA604SH8kx6VLGmYjg5XIsOFEEnC5lWPJGdqRFAR7SZbozmRqLJ340M4xKX/5lC
YkxF+n0tRUECKRrBNZUWUauiDDKiDnSIetBHB5GQBkQjGBEVFU1gQjSDOXoCLGBBtIIN0aaiHeyI
DnBEj+Nqw4mYAImIieBCdKmYBEnRbyAZkhFTIAXRDR5Ej4pe8Eb/G1IhFdEHPkQ/pCGmQTpiOuLX
kAEZiKNgFGImZCJmQQAxgPgVZEM2Yg7kII6G0YhByEXMhbzol5CnYj7kIxZAAWIhFCKOgaLoF1Ck
YjEUI5ZACeJYGItYCuOix2AclCGWwXjE8SpOgAmI5VAe/RxXlxMRJ6pYARWIlVCJWAVV0c+gGmoQ
a2AS4iQVJ8NkxFqojf4D6qAOsR7OQTwHpiBOUfFcODf6KTRAA2IjTEWcCtMQpyF+Ak3QhNgMzYjT
YTrieTADcQa0RD+GFhVboRVxJsxEnAWzEWdDW/QItKl4PpyP2A7tiB3QgdgJc6IfwRwV58JcxC7o
QpwH8xDnw4Loh7AAFiIuVHERLEJcDIsRL4ALoh/AEliKuFTFC+FCxGWwDLEbuqPvw0VwMeLFKi6H
5YgrYAXiJXBJ9D24FC5FvAwuR7xcxZWwEnEVrIq+C6thNeIaWIu4VsUr4ArEHuiJvgO90Iv4I7gS
8Ur4MeKPVVwH66Jvw1VwFeJ6WI+4Aa5GvFrFjbAxehj6oA9xE2xCvAauRbwWrkO8DvHvcD1cj/gT
+AniZtiMuAW2Im5FfAtugBsQfwo/RbwRbkS8CbYhboObo2/i+onidtiBuEPFnbAT8Rb4WfRv8DMV
/wtuRbxVxdvgNsSfw+3RN+B2uAPxDhXvhLsQ71Lxbrg7+jrcA/ci3qviLrgP8T4VfwG/iL4Gv4T7
Ee+HBxAfgDBiWMV+6I++Cg/Cg4i74SHEh2AP4h54GPFhxFfgEXgEcS8MIA7Ao4iPwmOIjyG+DPtg
H+Kv4FeI++FxxMfhAOIBeCL6V3hCxV/DrxF/A79F/C38DvF3iIfgSXgS8ffwe8Sn4CnEP8AfEf8I
T0f/Ak/DnxD/pOIz8Azin+FZxGfhuehL8JyKB+Eg4vPwPOIL8ALii/BSFJOKf4FDiIdU/Cv8FfFl
eCX6ArwCryK+Cq8hvqbi6/A64hvwRvR5+Bu8ifimim/B3xH/ruJhOBw9CG/DO4jvwLuI78J7iO+p
+D68H30OPoAPED+EjxA/UvEIHEE8Ckejz8LH8DHiJ/Ap4qfwD8R/wGeInyH+GT6HzxGPwTHEL+BL
xC/hK8SvEJ+Br+FrxP+G/0b8Bo4jHocT0T/BCRhEHIQIYkTFKEQRgb6+w+7TyBpgWY5XZ3weNywH
IKgC+OBirkACQcSniAqCJEoiVaFx20kRgBcEfLL0ZTpalON5qiGMhF8akUrjEpezTbQ6LeVujA+U
u5TGoiqAjyHuakDEpyRRQmskjYQqAl1TnZQYsUWRclemRXkBc/T4CMiIVBqXuJxtIutk4Dguxgfq
KimNJVXoUmuYuxJ9oksFUauh3MXTp3FXosTmJarO6WhRQeSphjQSTR6RSuMSl7NNdAYdcpePcZe6
SspdjSrIWE0slqZ7WpC0WoycJVmLYTZQ/p56zfL/Knc1I1FpXOJytoneoEfuCqe4S2n8T9zVglaL
9JUpd3Xfw13VKfMaDeWugRYVJEGjGSGaxbkbl7igGBQDLnOFmIOkrpJyV6sKZezQ60IyyDJoZBkV
NHoZl8iUy7GPYqmC3NVqBK1W5S4tKkqCdqS4qx2JSuMSl7NNjIqRcjdGspPclVWhjB3iro5+0lWr
w3AYtAadXkaVb3E3FlDHuKuo3NWIlN0jQjP5zCpxicsPXxSzcoq7NMylLvh7uKvTg1avlzSgNepx
iax+at08XIvqlEVZVrlLi0oaUY5zNy5xGUExWUwgCGKMZCe5q1OFMnbo/Rg96AwgG3ApC7JioNzF
02AZrkVGpyyLOh19S9dMi0paSSePEM10Z1aJS1x++GK2mil3YySjYa6I/NWrQj9wN8RdA+iNoDMa
UUE2GY16VEEGWYdrwZhar5P0espdix59tEaWqMaI0Ew/EpXGJS5nm1hsFhBF6dvcNahCPyY79CaP
EQwKclfRyqAzK4oBVZBBtuFa9MhdvaQ30I9jWA16yl2NYaS4OyIfp49LXM42sTqslLsxkuFCFWj4
/E/cVcBgAr1iQgW9xWQyUhUAx3AtNKbWSwaVuzZaVKvTUHaPiIuMczcucUGxOW3f5q6E3DWqQr+Y
Msxdownpa5Z1oLeazchdowFiX3hXxYBO2aAxGil37UaDkX7UkmqMCM2MI1FpXOJytok9wQ6SpIk5
SPoCFA2fFVWQscrQG7QmUMxgMJtRwWCzWBRUQQYlDNdixPWwUWNU6EepHArSXtZrlZHirjISlcYl
LmebOBIdlLsxkuFC9fu5awaTBYwWCyoY7RariaoAJA7XQtfDRq2ictdJi8oGLWX3iLhIZSQqjUtc
zjZxupzIXe0p7mrQ95pUoV/gHnqD1gImKygWK+Wuw2o1o4oC4Bquha6HFa3JRLmbYFJMuPyVqYYy
Ek02jUSlcYnL2SauFBdoNLKiZjDYBS3y16IK/cGFoTdobWC1g9nuQAVTosNhRRXk76kfQDMjsc2y
xUI/BplMi+oVHdUwf88V/4/FcmaVuMTlhy/J3mTQanUxX0YDYeqCbarQH0gZepPHATYnWJwYDoPZ
lZBgQxXkr3e4FuqXLTqrjX6Uym2zWtEN622WEaKZ7cwqcYnLD188fg/Isj5GMoyTQYe+16EK/UGj
oTd5EsDhAluiy2QGa4rL5UAV++m/bGYDi91msDvoR6lSHXY7umGjwzZCNHOcWSUucfnhizfNe4q7
Zoxxdcr3cDcR18VgcyWhgs2dlOSkKgBpw7XYweKwGxxOyl2fE88pVqMzzt24xGUEJS0rDfR6o13N
YLALeuRvoirI2MShF4qTweUGZ4rbagOnz+12oUoCQNZwLQlgT0xQEhPpxzEyEhMScW1sSnSe/g7w
f1ASz6wSl7j88CUrmAUGgyn2Vi11pkbkb4oq9Kc9h17T9UKKD1ypPlRwjfL73aiSDBAcriUJEpKT
zMkp9C3d7JTkZLAlWFJcp78S/R+U+H8ExCUuKKMLR4OiWGIkS0AKm9AFe1WhP8I79GKTH7zpkJKW
gR41OTsjIxVVkL+Fw7W4weVxWzxeBUDJ83o8uDy2eVNGiGbeM6vEJS4/fMkvyQeTyZqsZlxIYTPG
uX5VkLH+oa8KZYA/C7yZWa4k8ASzArjQ9SN/S4Zr8UKyz2vz+dFNm8b4U32QkOLwe0eIZv4zq8Ql
Lv8jhBn6TworsHSP4HqSCKf+qIIwDAz/09lJof9mNvSjzvRb+EYFwGK12R1OXI0mxSYC5Fh6BmRm
BbJzIJibl18AUFQMUDpcRxXUTJpcW1d/DkBD49RpTTD9vBktrQCz/9MdZFXs/3eLcUD/RS4LPLin
hVTIhBwYA8XYg4nY9jpohGaYAZ2wCLrhUlgJt8IvPZZoFOj/rY2CbMhF3bGoWwk1cA40qbpzYQlc
fEo3eviMj7nRuW/+7N/715BQaXNJcdGYwoL8vNzg6JzsQFbmqIz0NL8v1etxpyQnuRITnA67zWox
mxSjQa+TtRpJFHiOZQhkk7CzsqU/QQy4MPRqzRnKJ347H2bTlM+8YTB/S8n1nUJJ38knfyefMpw/
NwzWcI2vsopW3A8174bBEibWMNCrEMsUvNJQoequxb7qReGEyq6ODixR5VM84ZpPg0NNUevul7WV
vsp52pxs6NfKuCvjHup295OaCUTdYWqqS/sZkPQ52WFzIMykVdO0OBza1IE7viqsCc9YTp3ZGz1w
zemnAIud3LPE9khYqAyL6nU9i8KhzjBs8vRnH+i7Zq8CczoCui5fV+dsHLlObGM/sGnVC5vpOFbT
1LHQE+awchVceMRTvdDT56PDUb2wA9FXhaW+9zge1lS2bPAecIXNuK0OmwLhSagxadXbLrav2rnI
Q7N9fRs84Vuntpx+1kuxtbXViQ3uq/ZhhVhZ9eIK7IozmJMd69PQAHR1LKbXXNxJ21m92NO3aZ7a
1mvUNqiq1QvxxnSeSauvr7rLV93V2VURq70yHGpWN9A8s0XtIA5dVevQoSEFPMOpZzqqWr2xwa6f
1lJJG+brrHLFbvvwkY6hI3ig+uRJD21BLVYQ9sz1hGFaiw9VSyjMK4G+uSWq8XhbCZZqPFUqzKcp
Pk/fFxAmHb6jR759pHPoiJCmfAF0t8ZX09HXV+Pz1PR19HXujfbO8XkUX19/fX1fd3UHXrWxBUvt
jT66yRWuuaY1rHQsJKU49tQCaqa1lLu8ptaT2caTWUCTQsOS1e7gKOCzdmiDowzNLV4PDtT0llYX
jlML3W/G/diWGhIabgne46Fho2M0r2R4eCqHdr1eap2b9oZgDmbCvVNbYnkPzHE9CKFgAO9HBz1z
4OQZ23R6pvfkmeHiHT68ykPqdGULS+nDT6Nit1QvLA0T+//m9LzY+bClsoV1Ma2xPcbF0j1tAJle
FnYEcH9UoA9vwnO+sBII8y0HXGWtHsWEMwC9e02++qkzWzzVfcNWEDsy1FNqB2jqvs6FfUNUokaP
U0FFv49cPbU/RK5umtkyoOAcfnVzy4MMYSo7Klr7/XiuZcCDU6t6lBk+SnMemoN6aoAPMpJ6yjUQ
AuhVz3LqATU/dy8B9Zh08hiBuXuZ2DFFPYaSAyFN8/vv+d3vvWty4+0Ldf1FpxSFXiaHtpjcz2D6
E6anMf0R0x8wPYHp3h1+905M23d43DfvGOXescXl/sc2m/vubQnum7ZluW/club+Ke6HtpFtqG78
jNywJcG9dUvAvXkLLqG3EHqh2Vtkpci4z70vuI8NPkZgQBlgjNjmPcTzdc/XjPKV56vQV2zPF0Q5
5jnGeD5u/JgJHik/0nCEzX2p+yVm94Oj3A/uNrmDu8t3d4S7w90v8u+87XcfxhR8m15g96+xI/RC
0Ydw5/me0e6DmJ7r8bif7TG5D2B6HNP1+6P7GeOvSPRXpP8Bk7v7AaLc47mH2bQx1923Meje2FPg
vnqd070B0/p1te6r1pncP15X6l6H1Szbdeuu8K5Pd3Gh24gy2zM7NJv9HGu8ssfp/lFPnbsXt1fg
Fddiauzp6OnuYRWj1223ZblFwetOcGa5Odbrtpiz3Nk5xqyAYVSmMT3D4E8zpvoMHq8xxW1wJSXr
nQmJegx19GaLVW9UTDqd3qDTaGWdIEo6DIp0GDHpFGOvkQkJvQITYntZxgjl0AA9wBkhiLuh5GWY
eRyehShIrnGS21gqudmxkhtKJHdjAQmb66G+uSJsIbhtqggXBOr3SjAtnB+oD2saZ7X0E3JdKx4N
M1fj7WkOc1ejFTXj/D9zVstekkBPX6W6A9zbS3qvuvZa1/Bea2sgOdxV39QS7k5uDefTnZ8kt0IA
ZfmK5cuXB/6F9Gvo1bumVfR/wFFn0Rn+wFfV/+EHquMIf+irIkNFT68Dd7HS4VzseZpA4BL1+Ip/
upxaCKcJwUp/wIk/CO6T+K0QbS746Daq/s9s9PWT+5Gu6Bf/brj3r0SCf/83k8lBJvPMWmeo43qy
nvSSZnIZWUouIYtIiMwlrYg/xtwyuF9VuhM+IB6SQAyEEB8xERGOkzSSTCwEY1bMH0GdY6rmLSoe
I6XwORP7V95NmB6HF+FtOAoRYoD9+FiAj11wG/23JpJCMshYMhk+xtqTUHc7htADqPMUlnkV3oVP
iURmkktJH7mB0TOTmJmo5ySVZCMzhTnO+UEklzFmsoB9lBwjArERPzwKf4JX2HD0fXIrvMnmMLvh
coyMXyCFJMTeyWaxbuYgcydeiaEOQqR/xMLixvqIwHBAU/CZ159RIS/Xa/Ka0hAIan3Ty8NxuoVe
uiRh4GmEpWgttHR6yM6yDCP+mYfXuefZ1xv4dp7hGzSkLdj29uDbEBzMD5bn5RLWyxKsj1k6OvLo
aLIjsoTcwB88/hrn/yZIJKzzbvb3nE6wqnUWhXyCiJWyBJ41sh1sN4vCPQuiIi4Te0RODGpCGgYv
cLQAE5QXBM1jx9Jr+NQHpyv7e1k/JsE6uJuZQhNdUT0R6WJ34xVsUBbKbiD1TL3QILaTdnEZWcYs
E7Bm0sP0CD2iQQTikozUjRoPcHvsyjF6nQIop/1oI950xqSYi702AxEFxmY1O1KIg90d2XBgYOAA
WTl1a3lZfe2EspsaI11vkdeICx+vvZVcO7Dmssgbd9wX+XDNpU9Mou25C9uz7WR7qnAiC1mqrI1s
o6WD6WA7LB3Wbqab7bZ0Ww1m4FyYCMfJB+Bhh/Llt9qjMKJ3zARSXGQeU8hkjCYZY7x2M7tt4EBk
Q+O2cRNq68vKt04lKw8MMGWRdyL+t5InHbhsDbHfdwdJvWzNQG3yWxE/tsYXuY5ZTDbi+OeF/EZi
ZJzgJm6kWZAEmbFQTsoZmXmVfZlD62R60EXTkceRoU3QEJ+FWRzZ9rffkY2DPHOc9u5CRmAXselY
X1JIIYcYBTroKpcJ8g083jrsAARpYbQJdhEtxAjEgxrd0bf4EP8JOHDmqQ7lVTPV2jpDnX0Fs0K7
2rDaLrl2lJrrzIxZ9O4YI1QLjJDg3Kiul9NSNoKO6LBZpphVtB3FZ15uG7EyooH4UtMz0pkxhebi
CaQg3+6wm3kl3ZcqmBR7QX4RH6qaXPf+rruP1NZVVNXVHbnjvvfraisiaxevXr14ycqVS5gP9kUO
tXfO7Zozh/j2/ZqkzJ0zZ17XnMhb+4jhnXcin0a++vBD+s+YOJdyR/iXwAhjQm7+3h6BCIJOMLA7
ifEeg87Qx/LMPcCWs8vQoINtx/KVo2MVlSPltM15uZkEeecdk1+ErSzGPe7IiRRSGnly8rrswkKO
1JMCwrGWz022hMay40Ha7wGct+v4jyEZNoVyDWv0SjFjspq8+jRTob7QNMl0nmmObYVNC4zRKN9s
EZmk7aQDOpK6oTuJS6LBgl2jFAMkMdLGXjux269xKwpOEHh7C4LKl9go89iCYKBNbSOaXWVzS8hl
ZGSnm3E5g0zAOc5Z55zFz3JewF/g7HHo21rpiAcyyZgiP/ZhTCEdY9FnKvIXeDibVcA7IXr5uuPL
1hP91JXzf7x69tMzPJOIbRNObenXbp61N4O55cvOVxouuX/6/GXnjCP17gkfHbo2sqH52iTa22vQ
Onz8pxCCG0Pdam+DFGSZzXfJ5vyAPFpJHe3LL5VLjYWjC/MLx9fKNfnV46eSVnlqwrSyLrJY7kro
LLmUrJJXlLgmjE/Z2YFWnpubfbNbUyjq9aabNQnpfaUN7nY3485zbMxzl47ndCxbETMttCyzY+zR
YLAtiAaGw1FuHouIo0TnH+x3AGf1WC99qf4MU0EK2lpRbByQmQFiOj07PDJojrFithTC7c0rbTqv
+fDPByJfNWWc98nc0quDadlleXl946ZNP/fyrOzs0b6Mxennv7YgbRpJ3Hzti9XTGrdfUXAx82hW
d9uihyeWV5b6yaTCcyyehEmVEycZFZZotWZL+ficYsWsmzieVHrH52XmXXP+mt+4DGIWMq45egLn
7IMYB+jh4tCUTJEIers+KNaJNfpWsVm/RJyvXyVeopd1jfoOfbee1QuCKGiIfged63t4ludZUWAb
tO1aRitqdNwmLSFGtxBEcqpDVoCjk0/5jqOlDlU+8n6D8nobd4C0tREfNXkTTgQFiHz705HNg0Fm
gGx4evDJSAOZEbmTzCKJbMeJG5nEwXfRBu5AG8jC9gagO3SurN5+ySXlSDn6AnacNE5XYJrI1koT
TXWOFqkpa5G0UlJSUhJ3pKduTxfcglZruFlI8KRucodkU7HbutHj1lpxBslBf65Vm4sWj7c4cDQ4
fIepD1NvL4ndWpxjv3trY/cSO2KLTS8phM+a0TT7k5t3f3Vu1qznF5ZvDaT6gmlF2ybMvHNCNucb
rHG3+1c/UTNrPvl6xe8nnVNLilNJbdHk5HR3qLKw3uG1uY3s5Mjhzxk2mFW8h9r+TmR6APstwJRQ
LrpGsgk9JF3jsNt5gSEs1DOzGCaLKWcamHZmGbOaERh06hhcoeeI2S4Ofxv2Du/EYH6behOObjhA
iJfOwnxg8PxIM7NvkOWu5+49PoN7iCSjdSyMHsbR/gTSYDx0hCrHppb5yzLrUmv9tZkzlZnmdlt7
4kzX+aUXlK5gVvJrjatGrSk1Wz0lOx3ZOx2CR8Th3iEkWNM1muR0HOXy/I3JwaOxQcbmQDmNDugI
Y35oqhY4OlWfGt/i2Nw9GgcavLGJe3jEDcgaOtZUs7CIz+qYszjy5MG6X7hGpSzrOPfGonHn6Gf8
dFnzzeVNc8kUYth06NxZsyM/CmYmn5OVMcnrzshK87WX5CxOZtmyxyL7L7zsMrNI0gyejKycDe35
YzID457Y+gnJqa0/L/LlhlW3BDxJLq9n4eSa9iSX3aGTM2kshLEeMwPjZBq3JIeM5GWGF17mRQGe
a8CYUTV3dHTlQ66OPpgZkT5yKU3MK2Tj8VvQ6WI9TozFU/DuisjD+0PTBEaj0UoM+REe0GhZ7kqe
F4qFErFeqBJnCc3iUmGOeIVwkYgTu8SwW7vReEGrIZwo8KvQ6bA8YVgOV0warYbXAs8zsDf6t5BZ
qxTzXgQw6gjo3DrCU8NoCwYCbTixoV3QjdpoOtFrpsAUfi2s5bm2VtK2QRk8cOCAitIBPP1QuWaK
hoG2Vq8Xgzu0IZkRUiLLFwz+dUFkLZNOHg088gjJibzAHzyxlLEPUv8IC9CaLkRvVQDrByAQXbcb
2WvbG9ua9kZ/HZqu0RUHJyBIyc5kH5vOZUpBTTDZ52tlWrkZ2tak8/yXsKs0xqCl3LLM0mPhLJbE
zTrOk5Ob05HTncPl5KRvBoslZ+8YGNMwpn0M61krPFKIcUqb8mW+Sug2FdDYcLIOBHicpmNhQWwe
ttsdJl86hgqq3xIEal92GiEUFxUVF5jozCew7XdF3ps3b9nieZ3Evev8m0KVSzOzk6YXFffWTt0y
YVxtQ9n4G2trNpbmNbtGlcwvqe1NntPZSVL39xPPgrlLbCZL0Bq5yVnh8WQXjBu7b/01+4qKg1n+
5ApnZGdCtmKzozXsR2sYj9ZgQL9eFspqNU93zWMW6y9lVuoF+xaJdWwRjWu1sApV97rd7pC70c06
esQ9KRgbtinHMPyJ2dxJRqHZ5XPD1Bn2Q8L4/ZuXRk48OPg5k/QwkWZu748sv2DFuNVrOjs39o5f
NId577nIIy0VhfzB8SXnR554aevBccm2E7MTvGV/oHcTW8l9gK3UQEXIym/OZUJMB0MXA2SzxIos
CzS+MGn0GF/IQblBZhge26hVvsTZB+eAQEEQLe6o6hRO0QODng8Gm5jVg1dFruQCXH/ko8ibg+vw
KtR63uIPo/X44cYBMMasRt4bfTPkR4Px8QEx4PC5WuzNSfP5ReJF/Fpxlfkily51S9C3zMf4aGPG
YrDj82nYoL5cv0zfo+f0eusWDZe8lbUEfQ2o5ANBr/deAbiuSSeJa3nBJqQJrPBImvJl21HVOxQE
TbTFaEuqIdFMQI0z0ZzScKg99Hu1dLS/Y0d4rKiYdo8/3BV5+I7Iusg08iBZt5Vobw8kLckv3TFj
/l0V5bW4lAP7GHvkEPPA9Iwp5BayBN3fvWMaIrfbprg8o8smlA2s/CryDcMQP0mI3QP+CxwdGe9B
gN2cK4WkDqlb6pXCkiBJvFZkCW/WMD3wsB701IGzEtvD79GpN4ECLp/KC4bugXf4HmAzv4j0Dv4h
0kt6mWJMPxns5g8O/o3x4jVX48LxsHrNsaFUDbdVYLXsViLJt2l7MMC9DVjCsnqdW5+rD2G8wKlj
RIPdwWP5ahw5mK9GugUm6jF9pgL28Iltx46xC48dIxL7BJEiX58op/aVFf2AfRKv44T8UFIrQ2xb
HSw6lC2CxeHQ2np6adif2HPSb9NQNRjzKDHLF4bC/tN8Ne0Y+2RNde2fty14uNqfu3DqooucDiFy
H/MS2TPnvnHl1UYDGW12l+TnXTKLmUrMQ1b+KbaCB1/IirPqZrxqB3TTt71ErofsEZBzpth6pvxk
BM99evzPOGgP4hK3YYgpwiGsQwd7BoBFQ6xA0+VCaujqkgMyCxqd1igrmiStW05ns7mgNiiP046T
GzS12lXyOk2ffIPmJu0O2VqkbdXiMpXntNSekwzmYr5Xh0E/BZ7RspogV851cN0cx1EFJx7mZOBY
UcOKsoanhmAAA+Hx5CNIBv5KcY8eOxBoo71QQwPqAVR3kJcbQL+AIVoA43kM0NSeaYhXOBS5MnIk
8hWmG8l+0kDOJfvZdwZXMhtOuNBGbMxHQz2W1LlhX6i2gQmJzPVMr4ghiZ1hQFAEjzCJ1AqXo6Nk
cggRGFEiDMcKLOsTckmINJEO0k0uQ+oQRgxhQ8VeeFhGsh94GAcNZMIMdYDp5eiMgh0IoDUHsAtt
sT5QB5YQYPziOKZQrGfQbTLoNpk5Yg/TLerUdQqqhE3101pCskgY5kpBtOL8vmF0YMPa37aiw4O2
iy7OJGqvEQQpct3g1ZFbydOMm3SwkRMMOrb72Ok4BeO8JMzHVYmsrlnzM/hMMVPuJt042/XIom2L
VpOoydKwGs67hWdtbBou/izGtbA3rTyNuNA/+VX/dOz0NStOIbGJxAPk9BjztIhHmB9ZGNkWuTmy
kGwjC8h8sj3ClhRNyC+4anLtj4ryy8fn56+vq1vPvB/ZGWkjt5MuVLot0j7oqRpYu35faVlRYVnJ
76686rFx40rGQszn8JvwjinghkmhhCZlvvESjk3YIooa5xY0LNPaUqijDked1HXF9MNh3pCXSRB7
NHs8yrGhSZ36HnVSP0XCgDqGsaj42w6I31QzsfXV2z+J9DKXX/eb+pntkeVVOWUXt1dcOKcnkOZl
j3c9PrFlZgTNKi9v3N6+8llmJx+pcPo9rZRVS6Pv8PP5IxhN/K/2vgOsyatt+JmZZEEYshIgYNhP
2IhscLAFpAqiYhIkMhJDAEGUIQIurIpInRS11llX3bharQtbrbvOat+6W0etM/zneRKQKv2+9/rH
+17f9b8eObnPus993+ece5wnY99uyLGrOoIL9gajGmS4PZMbKNrV9XPEIACwrWysAuABNrFwnM0w
XyWzlFliNsmyTGZCQwA/Amt3zA4NBw6Mg/MCO0xMJ+gaOkqns4FRELtPsRZMEVtTTDMBKgjyJ/2J
f5CckmGCMUrINtoC47bD3IXuAwT+7nGCWPdMwXD3fIHSfbJA5w62Hek4ATvljlA7kPJBYGAbqGjR
AusdUnS7vJQlkfRefFKOufpZ+oO79Y8muZXB/RudtBKP4LSU9L2p+1bDJbDzAlikcs3Uv2kkxnj0
D8qckrrok/Ur4XNX9Y8ifWDlmFwTrmmAv2ywmdDJJvTMkh9gerC7fu2QHI4pL7R/SLi1QGwbdIiU
MHBx8XjKK/WIsIaxeeB8QllwFZ5VRd5GMRl8ZgSziokaNDx13Ucp925bjsfrvfXVem/cEdvyJhkD
DhDAGQVCkiOkLoRHRIAIg4agOIPJBmtBQxEGj1sBlQCD68DiBVIuK5cEIK6IG8Edy0UNASXQSlC4
8YzvhthdN7cBRcAAjgCpEFAxyIDiAuIl12KCjqFjgzjJ0i4QTefyA5OQSGwoI5EZxRrEHoOkYCMY
o5jpLDWSg6kYE5hKVi67nFHF1LBK2bOQOmwWs47VyF6CNGNLmM2s5/AbXMwBQZUI4WPeiBgLQ2RY
MCOU6cMKYJtgpCfCtPcJRMQgY3WXmGSJ0sVMQANCEgLaLkSEmtsFMt1AVoXACNukBkhGA4TKoFeR
v8QNM3FT2A53hD1xX3ggHg0n4BnwSHwcXIhr4Sk43+iOG3O4+1o/OxsC2UigpJlkVGcGMjPGEb1a
/4n+D/1bkKvheb/ApnAVjAOT9tobPfE2ANioLgwm/0gtkNH1M7YTmwbxIALKjRjMs8I9+lkNxYfa
jsRH2ubjKl6+bamz1lXjyYGfiETuFv0jOLzA/v2d1rjzOWssLAgRTNR57/Hx9oF5UpEUkUrpdf32
ygxXlpS/4UOqB9JKuwu6lYQ/F+6t2CypIrDc/n7A7ZYEfnCJBCx46tB1HgHBJlaWETEBaje7DBd/
bUzbpSKlApauaG0eecLDIRiGa2BfWKBfAjvfp5lzBZH+Th5CoZnHTIswUyvLo4snLwWhApOWPThc
APN4rh0n3mFgBUYA7iditVB/qDHCiUDDmSH9ZDYRaCyWwEhgJvSLsYkXZYnyRZVirosYWFYhWEjS
CeWSi20OKvikqSL4MJ9vuciEHy6BJeTCi0ClRGK3CLLgQxK+pEqCSrxdYYnrWFfYehptr5RU/2QU
Rt7pPiJVKKVN3A32FzcGvwHGi0uBE6UagESAwIwhsq+ACyPPFjzLHDlONTrrcXXx4XRf8xB313GR
ny5ZMT+mUOLoZ+E7fLf9oKFDry9cdid+cJSPVN9pSlha2O1c1v6lyFzoYa7vlHqD9c/suoU9pgkh
M0gMhUVI41hx1hP5qNiNQ54ssNSmkNUiLh+2b8EtBEKkDtrjaDONsdcBsGBY3PBH5PKSpGe7kgvr
5IgI3tMODGkv0rHH+tbs9gmdL9KGxBzOUdbEwMCguaQ7NTVpp8qKShKGwANhk7nXkuPT3B3g628c
kf587pZlqxc6AzrJlXqL1UPmkC1UFJEmQdxZvshAVjSSiCeyorkJ/Ew8izXcRkXLZ44VjrXUIeVM
HVcnFMJPbG1N+q0x5UMMPiONIWcUUz/i2WpiwWRa1EH77L3tYVu4jrfXzuAhk3f/3Sq+e786GPxJ
UupO3VZa4Gww0Njbt8cYu7drL4RJKy5N02/St8LDYVdw5IT6xegETV49A/6tbnaqt/6GzAMm4H6w
BRwLQpy3wydqC8rADnQHvnUtzR74vBEREuB5tprDbAZ3jYDHIb+F2ppnLbIGWpIhMKnjjQEhDMIB
uwaE696UYgymAqrg4HDqwoq8qAIk2cEO5qQ2dvL3BbuIXAa01sYq0WNCPGyhf6FvXbz4p+sptT64
Cd00oZD5/O08VP1cdPo0m0nuBv1I7DE4Dy7Axg6PCEqySPJM8s22yPZVWUzwncKoMClxqvBlm0us
3Bc58F14shYr4J8votkymTaS/uZgd/h7TbPZ6weOP+kf+HQ76MBTJqVJXvk49+Gmh8JkDfR+3wR+
uG8yhw375dOS22keUfvjFVMcRLaRy3MedkFJg6MOKbMWhnLgbH2rKFPS1FReFpBXs/xSaFigrRDu
Z+3u7ChWDDL3DwNr7DjrRPygJHcXn7dd8DsOb+X89mpH0uatAzbPFJwACygowgk2NzMfKNCYYzCf
w1hoxudCHBiwZUVYjbVC+Ow6zm5LYyRFuj3dTIE4yq879qMsYQApd3PcVN/CFQgTY2XKELAv8sZu
KdjRiXjGNIgBWU5v79CE736MTzn3I6mH20Bma3weJotwwJcbnGYU+Ms8GFsG1eHLIJgPI3AKcyxT
A0xwt/0N736OQD4/QEzJeVj6OrgSk7fBAiN/iCmF2S7ClHxzYp0RET4W1+AkIpIVAw7DeNDZMI5+
AewFKTQ6IhKzQG3NbaVWayy+sNlpscOG4bLQmi+wFCEYl7lQyOfxuPZ1onWWcB0i4NRx10EIHwH/
3FwhN8ItxU3j1h0UviMfgTw3ys4y2BC5CSjxGc5TrztVKjfv1Yg917cwTE2HRvkrpCSd2evGq9cR
BafG7ejQt9BNBXHRnhmo7ds7iCy1WCJxcLd6eweTVw5NlY/NyrvS+c4ZkaVpQb2oZ9UBd32vOu9/
Z9XN/7lVByRRi07qtGu4C9BpZBzhEGFq3srkO7SiFrxp0D5nG2AoJNQ5ekRdPYDj3TtGCAjw9+vj
1gp30Xfor4LUAcfCjrALHKmPdXKSiMWZfn7DnB36OzqIRwbLRiIyoIIOweGwOWwJh+kPvrviXp4v
r5e6Otq69W8cP6rBtT/5VnEEWqdX4GFASqR1CI9wj0FieDHiVF6qmZKnMAOOky3TskXAN+HZL6JZ
sG2EgHBHrg2zzmS3A2UdSHkBcYX3BOg0GnXyu4VlChtMvcBAfNjw2CE78sbWDyLFlrZx4tl7+jma
ct8CmSRVOnc2EjnrTlxSiquz3gPvKolK1Z/SP1zVLLJ7d5LLWGNYUfQSNh4yhYJ2wiYaEwRoU9Ia
W7JASLyQx2PzyB+FFXoLYRN6HXO3Wfe1FKAw/J274cbf6aNNiF4SW+Y6JpbGkDSVbY4zI0xREwZD
aPWOj8lX50aT7+aFoTHAilYAORFQbQTfx3uo1WDvEricXW5T4kQXkc6CA3BFcTHIQgTgVFpLQQSS
Ahw20n0AYcgaOz6dJNWMDHzp3DWohYN0mrVgmoM1nYpEWFQk4qPxgekGh9i0VyzibvAhyGAkm7LD
sBBzoPSrhXFXGLYK+O/vJ3HwMdx4GpSrJdUFq9Af0z9peR7nYDM4Mqhp2ITcgenSGUGfNQOPijX1
10hRSqfqk7IARWBVRFMjrNh0PsgRlpp5Wls6eHu5OguY5jzp2qntF33t9HcCYwkPqZs525zvvIK0
bl330Un4KsgGiovwYOE2OMJja9gIm8+hr2GzeDY2loBXLvlQA7Lj2cEMDr+OxVDTSTZ9fYHhoO55
fA2XPJTZIy9ynQ3OImngqIVyEPQ8FPBFJw2oHX22s7kZzoOH6b9CeNzBMbZZpvYsnmDdaYTzHByI
A8/12pARTk6uViww7+ddt3AmJgd6ICzClUWzpiWYZZkVmFXRK8zoiDnO5AkW4hYw5fkY1AG7jkFq
g0eGyzTS+TFoA6P340LeOfXQA0Iipr5V8UXxnuPwBLbQLDHWS+MH51UmJF84g/z07sfhE52dHR0d
UFtAiT3QSOaAEhpUECHZjANHoR8yGB+BYyDRGkAHHKtHEVQB5yM6eDKCUeGSA5MXiJIZhCMoDwHB
FAo2JMObkcxAIJQP+gM33HBbZaAThA5UEAH+GAfJOw8qcGDCuLk+WZ+nT4WnwBgMY/I3yzD527co
Ru5ue6AFLAFldGhORDgDj8NHoCPxXBQHFTgNx9bDu4E5aUDAzKvoO+gIvR5ENGyUjluhzqg7HoRO
wCcjJWgFrqOxEZJoJ0AvjSQagXDDQ30ejtkgCNObmcykbovIJ4mGs0k+ouhFd/ZBKmMcJInvjnmQ
1TAEa999qq/Yqo+HK+A5yIXXMLwKywK0f4bwcUsgXxSyiGDBF4BwcMPjbhJ79zsScMs3tdhUhA+T
3+EkMqahUEWvdBhmUkkGJ1JpA/wLMgqloaPRK+gVzByk1djx3gkfCNIPNCeQsmi/0EX0NHoLSLsY
MsYaJospJxNLyAojE5vTR5rNnm3CMckx6eQIOU2cMxw9mbjW3BnckzxbnhakzfyB/Dn8swIRlab8
j0kt/0n/Sf9J/0n/Sf+/J2BvB6FJPZ/H8oG6PygHA+fCxwgjEAZVGWEU8oYKjTAGmUBlRhgHcJ0R
pgF4qRGmQyE9eJgQF/rSCHPgBGiHEeZCbsCNRyEYQ8FcXGSgEcYge8SDgoHPALGQTCOMQdZIHAWD
6ByiITojjEEWiIKC6aCegcw0whhkBTwzEibf+WpCviWQgjHIEZlPweT3rSuQ7UYYhriolREGeNCt
RhiFRqNNRhjgRNuNMA7gfUaYBuCHRpgOlfbgYUK2GGaEOUgrJjbCXCidtouCWSTvdFsjDHinm1Aw
G9Sb0gcYYUAz3Y2CTUja6KOMMKCHnkDBXFDPp081whgkphdRMJ/CM8oIk3gM/c1IGdKXG2EgQ7qB
RyFFz3YjTNKzioLNQb2QftYIY5CEfpiCLaj+L4ww2f8fFNyP7M8QGmHQn2GQgw25powgIwzWlCGl
YDtqTWcaYXJNDWsnovqnGmGyfxQFS8g1ZRQYYQyyZRh49KT6Nxphsv8kEmb0kjOjl5wZvehn9KLf
pFd/k179TXrJ38Qo/7ViH0JGiBNVcq26WJ2rE0ertRq1NkenUhd5iSMLCsSpqvF5umJxqrJYqS1V
KrwylFpFTlGOWFUszhHrtDkKZWGONl+szhXr8pS9EI3Xqks0ZLVcXajJKVIpi716Ggd0I4lSFyjI
QjGYTuzvRfiKpT2dXI2dPMlOiTk6gL5MHJ2j1Sm1I9Ul4sKccnFJsRLMCijJVRfpxDnFYo1SW6jS
6ZQK8bhyip7Y4QmRoFVLFTRataJErhOrisRleSp5Xq+x4FVVJC8oUYChOrVYoSrWFIAJcooUYJQK
dJCDXsoinZe4e251UUG5WKpyFSsLx5GD3qMq6u7cJ0VUd4WqaLxYqyzWaVVyUtS9ZgfDe3CFUARI
VWAWnbKQXBetCsyqUJcVFahzek8KaM4xUKrUigG7ajAVyEt0mhKdWKEsVcmVZJ88ZYHmA4bydDrN
AG/vsrIyr8Ju0XuBNfPWlWvU47U5mrxyb3KKYm8oA1JCWkgB5UBF4E8MJYHyeFCjhHSg/GGrDiqB
OQC+91FLLigrPqodROHRfVAvgwgoABKjjWgH+i16AORboLWgtw+oJ9vEUCKkguRghBoqBn+5AIMY
igaQFtJQeQ6oUQGoCPICLZFQAUhiKBXUjYfyQFsxVVKCV3LeUoo2r4+oU1H9DHyROBWgvRC8aqF8
UEfOS7bkgdq+KRpPlUsATd295eC1EJTJGVTU/F59jBzwESVRoKUAlLtbio3ciSF/gIGAfKlPP3+M
yfUDTJ49mBIpGRmoL6OkR/Klo3qPpKgWU7yWg9cSSk4GXg0yyaVm11HSIcsaalwhaNVROBSgbhw1
tls+sdBwKAGshGGstleLhqJYAWaRUxhVFF9l1FxykPc9r6FM9iU/3V1CrY2C6qsGuYJq14AWAwck
9wrjXCojBrkRl5LKyX3yId9kewEFScEoV/BKrv+4npn6oqroI8z/vIzeY1dQmMaDOi21S3QU3fKe
Xd0374bZP6YrpJcESE4MvOio+brPC4nfwKsC1JRRnKupPd83pwY55/xFpkpqXdXG3MCVAS4BJQ2V
iylqSylulD14yJ4F1Dn5r1Yoj5KcBpwCb5DKqORFSfSvu97LeM68AVxOcTie4lEDMJSD2m4uiqG/
12+qPvVbAqjPA1ApwED2KPmox2BqpmLqxOgo7j7WefcAr/nQC4DlHmj5sD2DGvlh7RCQF4ARuX22
phh5LAH7x7BDyv9Lzj6iChNhYVgIFo0FYEFYBBaKxWPBH2FI/1vtHk9SB8tA6eMWcgdrAL8fSyKB
OvcqABu+LALqKoF+/JsP5qEQ6RXzIbiry/CNGdTP5VpAxm/SQEkvHesVF0AQC/IDVgQuyNEVgbHA
r0xIHyKGLFKTE8WQLZiri5qxV94zLgjYhr7H2fcaAfe8whBSoJYXQFwqF1J4YCM24CUC79lQ4htf
XUhfDcLQGehMdBY6GyLfb/QKeg2aRNSnnYDHBsHoHAqLzojNiM8yF+r5GXDL0UStZSaN6VY/pP5P
DkxH2mot40HVYASGZWyCScPduShijUNEDo3lToMxuDYQgbG2NGIY4dGrxrbdvtoWGkilZLCBiikT
oaQOXhiZCIdeyDDhkZDqq2ftNk7K/VlYuenTTxM9lU35bbWmMqIWG0vUogltKAIjCMtrveBqSteo
ZScPdo+2A6RoZO6EKw0djrHNHKPVmnIt6WqKpXJXsSw4OPADp9RLZk/YGjqb9+muyhwIEdmOmlm9
b09Vq3XiyBJdnlqr0pUT9pYcIpAI8gH/fGWET6YlR+YDiv6gEvzLJMopWQEkNDNkeJrMjBCQBYYZ
65Oc4jzgs+nANHyCS1bSzeipSkWhukjRTRjr7whzIhwMhFn3blcoxWmq8UWkJ5gSHUnUwo4Ep2cB
YRiH0FqYB4F6FlILw9DO8ikXsrfFBn/pt0F25ZWz/9Cyg29Ey7+LnfjbmUF3z83+Jj8hddzzz5Bv
Ei8NLfCWhCkPnHbayR6ys6rkWmzHurnclCPO7k/bfuU4ic5ESl6P++z7frGrF8SJPuvc5u34TZxn
pfqyuX3I7GB+8LUO1+e5IZ6wT5e+/5Avvi6AG5a+2bNVXlX7alRbTd30ps1PdzWv/D7oi5Tplv0b
kq4RL6DQ50dfhdbsr39UELzGy+/Fdq+vWFPGzZuUu7S1mFP/1dNvn4l3J5vOkZ/0uOwT2+/x3riW
kJQ0q9O5w8rXbWw4lhG2ojalsQjf4n9osqQjNTf0s6RT7lN9i+oG084s/yGuHimqh1YdbLiRRn7W
E15Z85qo+ZMwA+K0c8ZMCBaNAbYujtNRlKhpJ2thrGYxUbOomp/1g+Y3lXa507Cpwq2JTV0nP9f+
6/dbLQ86BM0aOLBRcCbshfzhjQiCR9JoBsNdGE6g4IWwIyu4mAUmPGV3uhTSZH315Mq3SYuHxXit
jJH/TrDJZh5GfjNMfa+jg5I7YvL6TVPjXJ6e3pekax/RX+dWsq3+3fqE5klQ4r0TD6yuqo5w2yuf
IdFHTzScepl26vCKjgz17/KYtTHQ45Zji8/b7mKv6MdpvnjFfqPrlN8efVG8Ye714KbQ1gn7ggrP
Nn7l9O7GvQsq5rzGDv0taK/fsz8rX/FNvfAHri0LovKlE3cGzb1J5xzPzuvsqI7Mz/1y7869TX4n
nqL8yoo/zt6MujFZf+vWBv2LG+c52zQX5t9O3hHUXul5LvQnP/a4QGRFzQSnGS9GyeduztwbfHHs
7OF11r5/hLS21Zq0j5m1zWPn56tPrr8i3nGA6DddLOS47Ut9HnlzNHF7vlTVcEjz87M1609XR2lL
uUDHVAAdM86oY3Lg78MoXcjrfY5woGf+jaeaVDjBQMcE+vj4ET7BpMKREb49RaJm2v8T2jjUxgFb
F0tMTknt7o7+Tff/Vvd0EDPexGq/TMtfPiMZcjq4/5xd6JaREUHPiufVuvyjxRRKu2xbyx142m5v
x59RcxadextkfWf3q9sPf8xBD7T9eKEkcdSgtY9G/372Z1WWdfH9bbZzsE7XmDbFSG/71uyi79Zb
Bdcqv12zb31JY7/7DYuELtuqXEpXnQsKrru9zeW81Sv3e2ePW2SmOzxdNKeh3lX/fKjHP2a9xMKn
dHa2zK/nTER//kFvEuXfdXFX+LWmWNaUFxfjN2b9Xqq1K3OaMsP/W9vsrSlo/OBC+prhja206i9q
NqYnXaq58PpA1EHZ/uGcz86nDTUlHvyyurFy9LcVmcIGxvZAVdsDH8lsxoNX54R7br7tvL/K3Kh7
XhI1f/Ste96f4qBJePExG58lY+bXD/9qxp6jn23RNVHLZ8cjTz04yPRqSm/YOWFWhEV138c+huwg
wkKJECK4LbDNv97XGKbLtQUfhOmafBVZ62283Cj2jk4DG88LVBFDuimEYWwgMYAI6i4TSL3H38b9
FEKlthcm3QcHitI+UnTaejPOE71AHVV6KXr9rqNRryVKv00lmycSTS07pr3W3tF3Bv46QNM6TMzd
M3H78efn78y8K9UUn3906/Dkx08y/DKrax/wL2rR+6ZJD69xZk+OSTbJKXlXtJR+7bR7phUnePPY
d1e6sHXIykuvm1bu7Tg0IT1ENuaOR9HJJ4lutk/tSyfXf3W04cIWt0cbTnEP3llRdff7u3Xa9Fqr
Irdjyxdut7Y/pF7w07gvDsXnbzz+KHT+7a3e6yvKgsdPgCbXLkP51+ULh7pEXV/oeKiB/YNw5Zir
xT7aAPuuY65HJKnJuUOO29mtPeISrEpJWvPwMK3AS2vzxOFKoWRIdY15ROWKU7qguGSgfZYB7TPd
oH34E9ifJR+EnNcLfooVjagY3/6hDvr3+DoBQPkEEDLCzy+QVD3BoPhv8HXSVYXKYl1Ooeaf9XWu
Bha9+epYVNxEq2Onh4SlHXy9XrjHw2evaXLqsWmPwnwvD5XNl+6Yp7gpSqnbczj+TBX+8reS/bO+
+/L8JpUmd1L/3Ls7dv42fXfn43XvTFexRzq6en8fcTkDsyn9ulBRGJf+07Un1w+smPZd9Y2qBCSw
+Y+DyxkZ9nmDOy8fLB3lPWWHM7Y9I2uCrbyrunLg4/OYc2JwmY6efXjUpfpAj5Lj3Pv2wczKUv2y
gqKKmw/D5i5aPpE7xi3ZatxYn+VnpyW5O47Ki5113buOn7L11dfWcwoeOy8xe3mSf3E693ltaXHA
0YUV7afG0h7im+t9d75szqqLrBsxvblos8hjyCn10uibE+5WuTTlG/RNLSwFEpH0pXEY/zO8HT6N
aYwszGHqy+16KUr13aTwRbv91sfXz9239P6GkMjooz8Q/XoGCBHMxJ4FpVFhbDQU+VdP6CM3qg8F
1ZwokB2uTNkraPo8hw5zZ2ti5/xWnN4RzsQ9u3YNS5tu+yh43s6VGezrs3eE2Jx5s2HN8Z1bhjnY
qBmqqflou+OgRwXbCysddw36se7ZHN5++syAQw+m3tNkx66Yf/bU6WtNB28dcOusfHh8k8/5ht0n
5d8GnLFyOFB6PWTxNpvi5Q6Nl7ZvN02f/XzpYWXcYqnL0rEzeSHfmSknDdn7/cZpA5I3jxtxnbh3
L9ju9oynV4JrXpk5zFZUy2lYy9PFSLT35EGNe7qQy8pXcdevoLoF2/Aik1PLrkpzKoc8sVwqcAhC
bBs20I60+Oz6JeJoWmjH2hnX7+YGznnu2LL01Oay9GEDLmhjtjq9AApqHVBQ87vdI1qzp+GZ1r/P
PfpIEZA6Kgh4Q/5ANfnIKB3layjKyCJRs+1f4R71J5wNRfuiaJWGvDiPSYsVx6YlDQiMDPLxDAgK
ivQMHhTsI3MmnAw82f6VJ880kilxmlJLXrT/t+ptYQ1LHGU1rOLywkdL3l1tOPOGO9fs/rpAqWmp
PjFlfekitwWDb67NUCG/NE9NnP5T1cTfSqCf9kYXvFFvmPi7+5nK+aebLZd9fmTPqz+nXsu55UnY
L3XxLA3/x6CWpk2XZgReOvXbs++zvnmbd/OpYu6Su9+Yvlq5v+7thVmn8dAOuDSlP/qybqdF/Zyx
+7NdPQZ+v/pda6a/XbLFwaBL9jnhoQHbMoTmZQtD+K+hzQt+zg5c33+v3GOIsGb47YL7a90Xzmnk
Tl0JrS6T0FvdNOguN8mni68faXeMP5AwklaWro3eHKa4tqCOMWKH/l7DUGbAtm0vfddOTWgvr/IZ
6cpd/vUfNwcuD384KKS3O/VeIUgXNh5AQh5cad4zZRDv9cnnU5d1nfmLp9Snxvg/8ZR0xRp5zv8V
T6kbk65vZf0X/492sC9tBT3e8Pbns425J1xvZ+7uhGqnWo46IhlpuvfLP/MvNujnnPy6VGTj+OLP
Wye2746ErQM3Dgls0bw+5btGOnsXe4fOTLpzW8ktN+bPs5JvtIYv2ulnWnOff83u6h7F90kpIQkz
3/W75rzpfEvD/fhvf/n9VaRlNvzgk8YppRW/qPUN4g0Lls5efGCMdZs5IbnZPjVnnp2r6zdDPx0Q
PW3G4+vnp11L9vAP+TUyEl4HmbCfXhhqczpqzuTNzzznZLve2j+nap556faxb4T916lN5VHSEQNm
hsyKuLPzyKn5n9gOysife3J+YgYOnXhJRMQm3ejX2PEH//dr1jek9tuHPS276XJ7L7PG9Kr9gB9i
ZbXYEqCxFiEwTNQ0/BtDtr8Eku+vutpqjpLWybhsTFRm0vseDcz7vsSWcYnereZAa/QMxGRgq0+q
+T1gnxln08vWKQErfj24k7MuazGR22uIiWwEkdHmUe32zz/d+tylWvJPPMsTf6CZsFoYGpb/M0s7
U7Hk2w7rezc2vOlCkT9q8nwuX5AdrVjz6uJybstM/ukFx7+I2jTDdXSGT+3shGsLpezIxBF7vn8e
c+zP/fPH1iUeCZk0RjzePKOq4tKz9BFxs9RmiQlf1pW2nCrTjboY9PAEJ33MqSNxZTEOJe3sjbvv
vH69OeWbIv91IpWow27LotaWp4p6xtW05q+C1m9pT5asrKTPqBkQGc7L56/kn9y9/O3hZccFvOnF
J4In/fay9vBW/Iqo5eaFO6GFpQNnOaa1bWl59WtAUHbC5arIebH3kE/Gd4TW2l8XwCE0ezioJWHp
N584roHe2CQtmhYUOMViOjH/88xFR99s++lzS6+m4aJhgz+vRURELWLzfpVoslrEBFQx/uXb8UMT
+RfDTTdux7Zswqr3XmS/v/iFwZw9LbiMBywqQQQB8yrz8fX3y/xoK0ZsDdy3jH/37tBhX1x8/Ptd
7onL5Xc+0E/kFpny8Oj5Y/cnIPE/2jZNtHUaeCh6z1lezh9W423PBSf/yV0XGMBg3royMOmUrftR
t6Lzq5rnPXg90erCpVHZsq//3LR914D21qDvCGmzdMOTx8IGE7x4u8cX475b1bV5o52as//uKyl3
WefBgMg3w2s2jjrzic/0aSaCX/xKtg58M8/L2kq+70GqczjtxYj1b55UWgTu33zyca30WcEfoWnN
R57PD/a7lL8/ywZJLbesdty1eGqAXW7W6ZULtsle09sO2C9qHs24zWZfn2HxQ9SyhUWTV2/JMAt7
ceXh/FmJz87ONr2xo1ScMnP3gvbJ3qfyrNbbn/NkRQknLUvcPJjDrK0JOlf+FcoI7UyeBEH/C2xe
f8QNCmVuZHN0cmVhbQ0KZW5kb2JqDQoxMjAgMCBvYmoNClsgMFsgMTAwMF0gIDNbIDM0Ml0gIDEx
WyA1NDMgNTQzXSAgMTVbIDM2MSA0ODBdICAxOVsgNzExIDcxMSA3MTEgNzExIDcxMSA3MTFdICAy
NlsgNzExXSAgMjhbIDcxMSA0MDJdICAzNlsgNzc2XSAgMzhbIDcyNCA4MzBdICA0MVsgNjUwIDgx
MSA4MzcgNTQ2IDU1NV0gIDQ3WyA2MzcgOTQ4IDg0NyA4NTAgNzMzXSAgNTRbIDcxMCA2ODJdICA1
OFsgMTEyOF0gIDY4WyA2NjhdICA3MFsgNTg4IDY5OSA2NjQgNDIyIDY5OSA3MTIgMzQyXSAgNzlb
IDM0MiAxMDU4IDcxMiA2ODcgNjk5XSAgODVbIDQ5NyA1OTMgNDU2IDcxMiA2NTBdICA5MlsgNjUx
XSAgMTc3WyA3MTFdIF0gDQplbmRvYmoNCjEyMSAwIG9iag0KWyAzNDIgMCAwIDAgMCAwIDAgMCA1
NDMgNTQzIDAgMCAzNjEgNDgwIDAgMCA3MTEgNzExIDcxMSA3MTEgNzExIDcxMSAwIDcxMSAwIDcx
MSA0MDIgMCAwIDAgMCAwIDAgNzc2IDAgNzI0IDgzMCAwIDY1MCA4MTEgODM3IDU0NiA1NTUgMCA2
MzcgOTQ4IDg0NyA4NTAgNzMzIDAgMCA3MTAgNjgyIDAgMCAxMTI4IDAgMCAwIDAgMCAwIDAgMCAw
IDY2OCAwIDU4OCA2OTkgNjY0IDQyMiA2OTkgNzEyIDM0MiAwIDAgMzQyIDEwNTggNzEyIDY4NyA2
OTkgMCA0OTcgNTkzIDQ1NiA3MTIgNjUwIDAgMCA2NTFdIA0KZW5kb2JqDQoxMjIgMCBvYmoNClsg
MzUyIDAgMCAwIDAgMCAwIDAgMCAwIDAgMCAwIDAgMCAwIDAgMCAwIDAgMCAwIDAgMCAwIDAgNDU0
IDAgMCAwIDAgMCAwIDY4MyA2ODYgNjk4IDc2NiA2MzIgMCA3NzUgNzUxIDAgMCAwIDU1NyAwIDc0
OCA3ODcgNjAzIDAgNjk1IDY4NCA2MTYgMCAwIDAgMCAwIDAgMCAwIDAgMCAwIDAgNjAxIDYyMyA1
MjEgNjIzIDU5NiAwIDYyMiA2MzMgMjc0IDAgMCAwIDk3MyA2MzMgNjA3IDYyMyAwIDQyNyA1MjEg
Mzk0IDYzMyAwIDgxOCAwIDU5MV0gDQplbmRvYmoNCjEyMyAwIG9iag0KPDwvRmlsdGVyL0ZsYXRl
RGVjb2RlL0xlbmd0aCAxNjkwMy9MZW5ndGgxIDU3MzIwPj4NCnN0cmVhbQ0KeJzsXXl8VNXZfs9d
Z+bOcmfLJJlMZiYzWSfJZN8IZMiGGJQAARIkEiAoUJEgEEGFJCCLAVSiolWrWNpa1NbBqqCipdZa
F1Rwad2guOGaulStC5n53nMzYAJfPr9+P/h9f3ifcJ977nvOPfdszznvuRMyQADAjsRBY+2U8eMu
MOyZCPDURQCOK8bV1tVDGrsX4K/dmCp5XOPEKWKpsRKvt+N12bgpU6vf9X+Qhtev4vX1E5qmnPVc
652XAOjaAdhHJk4JFlwy+fIoAKHxbdNqz2le9vkViwCMHgD+yNxFszt+ZS4KAGzYj2luntu5zDO6
foIVoG8zXh+9oOPCRTc/OG09wFXzMf3HF85e2gEO0OLzOjA/+cKLVl7wkGVTAz56GYA7PL990YpN
Ww58AWDD6KX758+b3X7oupcOYV4z0VAyHw2yV/MsXl+P1/75i5at+NO3BhmAKQPQZF20eO7sVX9Y
3wdwvx9A7Fg0e0WHMFbAZ5M9mN5z8exF8z765u4mgEfwfmlvx+Kly6LVsALL00jjOy6Z15H4+VUL
AK7BNGwJ0Lblxd//gz9vzCxT5Vfg1ADF7/buvZien9r6xFPH2gauk8Ka+cBgvRgYBN6nkSKTAfRp
GP+BFAYDsDAU59M07G6oiNkZkGEsTMWAl/940MKZybXAg4a/mS+EbJKqnCew22EFc6cGGEngWJ6T
GO4OEKIh8JxHW5TeeM4Ujwdz98B2ITnSAs9oJPJ7NNxO47hW/iCtKRCNUjl8zIHBg02De9h7SD6c
QbC/hFdHiuM7o3fzV0A9vw3WCR4Yx5tgHLULRXjNDoaPg1sG9cJjmPYYnifAeu4lqFfyuBZtK6CI
+yeE/9Oycc9DOncMyrgATMfzVO4JaFbs34Kdl6GMKcC+GgLxaSijdu4NaOGORV9T6rdQud/MpkM3
xl2mlH8z/EnJ52Eo/E/LpEKFChUqVPz/gt1NSFJSHhkhOmY3GonRB7IRgzl+DIOxIHtYMt7MEyDE
jGEzMfGQZTYTMEPKGS27ChU/aVDJIUAP32iioAFNNIJ7FR2yTmEJJGQ96JENYIgOACoX2QQmZFlh
M5iRLWCJHgMrWJFtYEe2KxwHccgOcES/h3iIR06AROREcCI7FU6CpOh34AIXcjIkI7vBg+xR2Ave
6Lc4EaQg+8CH7IdU5FRIQ05D/gbSIR05AzKQMyETOQsCyAHkf0M2ZCPnQA5yLuQiByEPOQ/yo19D
vsIFUIBcCIXIRVCEXAwl0a+gROFSKEUugzLkcihHroBR0S9hFFQiV8Jo5NEKj4ExyFVQFf0XhGAs
8liFq6EauQZqkGuhNvoF1EE9cj2MQx6n8FlwFvJ4GB/9HM6Gs5EbYALyBDgH+RyFz4Vzo5/BRJiI
3AiTkCfBZOTJyJ/CFJiC3ARNyFNhKvI0mI48HZqj/8RdC+UWaEGeATOQz4OZyDOhNfoJtCp8PpyP
PAtmIbdBG/JsmBP9GOYoPBfmIrdDO/I8mId8AVwY/QguhPnI8xVeAAuQF8JC5J/Bz6IfwkWwCHmR
whfDxciLYTFyB3REP4AlcAnyJQovhaXIy2AZ8nJYHn0fOqET+VJYgbxC4ZWwEvkyuCx6FC6Hy5Gv
gFXIqxReDauRu6Ar+h50QzdyD6xBXgNrkdcqfCVcGX0X1sE65PWwHnkDbETeqPBVcFX0HeiFXuRN
sAl5M2xB3gJXI1+N/DZcA9cgXwvXIm+Frch9cB3ydchvwfVwPfINcAPyNtiGfCPchHwT/Dx6BH6u
8M1wC/ItCt8KtyL/Am6L/gNuU/h22I68XeE74A7kX8KO6GHYAb9C/pXCv4bfIP9G4Tvhzugh+C3s
RN6p8F1wN/LdCt8D90TfhN/B75F/D/ci3wth5LDCu2BX9A24D+5D/gPcj3w/PID8ADyI/CDy67Ab
diPvgYeQH4KHkR+GR5AfQX4N9sJe5EfhUeTH4I/If4R9yPvgT9FXcY9L+XF4HPnP8ATyE/AX5L8g
/x2ehCeR/wp/RX4KnkJ+Gp5Bfgaejf4NnoX9yPsVfg6eQ34eXkB+AQ5EX4EDCh+Eg8gvwovIL8FL
yC/DK1E8FP4b/B357wq/Cq8ivwavR1+C1+EN5DfgTeQ3FT4Eh5APw+Hoi/APOIJ8ROG34G3ktxV+
B96JHoR34T3k9+Ao8lF4H/l9hT+AD6IH4EP4EPkj+Bj5Y4U/gU+Q+6E/+gL8E/6J/Cl8hvwZfI78
OXyB/AXy8/Av+Bfyl/Al8lfwNfLX8G/kfyM/B9/AN8jfwrfI38H3yN/Dseh+OAYDyAMQQY4oHIUo
MuA8CuxerVYLLMtxI6wBMbsgCKIAoohBXiOKPDUMTcYL+ING+lJKi2HgBE7AJUM4NUcVKlScFuh0
OuA4jh8hOmYXRVGDWqSvoAUNDYriMFkKqFchpl0d1bWqXRUqzjAkSULt8j+iXQ1CBK2iXa1GK4JG
WYNPAKWMBlGk2pVQ6LgQc5gexFNzVKFCxWmBXq+n2h1pgfxBuyhcdK9Rpjot1a7mv9OuhmpXT3XN
i7wGdKp2Vag4YzAYDMDzI2o3ZkfpntCupNVR7WqHJqPrsgaZatdAg7g91oAEmjNadhUqfsowmoyo
XeFHtIu7YkmL/jUGNXqdhEuqdrh2tYPrMn21ZaKvv1C7WlW7KlScQZhMJqrdkZzbmH2odg2SXqu8
4hoCXJVRsEO1q0Ht6kF7ao4qVKg4LZBlGQRB/BHtSpKk1+HeGINag96gA0knDU2m02lRzDod3R6b
qK4FragDo6pdFSrOGMxmM9XuSM5tzK7X6w0S7o0xqDUaDFTGw9ZdXJUlFLREtWumuha1ooTa1Z2a
owoVKk4LLBbL/0q7BiNqkf72rM5Egwb9sHVXQu1KMe1a6MdOGqpdE0in5qhChYrTAqvVSn/zYiTn
NmY3GAwmPZiodiXZaKJLsH5oMvSoUcx6vaJd+rGTRifqQVa1q0LFGYPNZkPtan5Eu0aj0WQA2YRB
yWyS9WgYpl10oVGwegPVrtWAQa1Og+lBf2qOKlSoOC2w2+1UuyNtTGN2lK6MWpQxqLfIZgMuwYah
yQwGCTfDBgP9SMlGPzLWSqhds6pdFSrOGOLi4ugvWvyIdk0mk9kIZvqfQfVWRbuK/3wCuAVGMRuN
VLt2o8GI2tUawQKGU3NUoULFaYHD4aDaHWljGtOuLMsWE1iodg1Ws8WIhmHaRRfaaASjiWo3zoRB
nV5rAisYT81RhQoVpwXx8fH/k3Zjdlk2o3atFgwabBYrLsHK3vcEcDeMC7HJRD8OdtBf99AZULs2
VbsqVJwxOJ1O0OmkkTamMbvFarWbwU7/PJ7JYbPLKGPz0GSy2WiW0aem2k00y7jRNUpmiBv8w3Aq
VKg4A3C5XFS7I21MY3abzRZnwb0xBuX4OIcZDZahyXBVRjFbLPTj4CT6kbHeJFkgHsyn5qhChYrT
Ao/HA5JkMI0QHbPHxcUl2CAhHoMWZ3yCFQ22ocmsNrPNioKmHym5bVZ0ls0GGyTijleFChVnBl6v
l/7W1I9o1+FwJNghMQGDlqSERBsahmnXZjejQ223U+167DY71a4dnGA7NUcVKlScFqSmpoLBYBrJ
uY3ZExISkxzgSsKg3Z3kikMZO4Ymi3NYHXEoaPpa2u+Ic4BsNTkgGeLOaNlVqPgpIysrC0wm80jO
bcyOu2KPE7weDDp8bm8CGhKHJktIjMNFOdFJX21lOhMSwRJndkIKJJzBkqtQ8dNGbm4uyLLFPkJ0
zO72eHwu8PswmJie4k8CjztpaLIkV7zLiYKmr7ZyXEkusMVbXJCGXrMKFSrODAoKCsBisTlGiI7Z
U1J8aR5IT8NgUlZqejL4UtxDkyW7E93JqHD6eW6+J9kN9kSbBzLRa1ahQsWZQUlJCVit9pGc25g9
NTUtMwWyMjGYnJsR8EJaqndoMk9KUooHFU5fbRWneFPAkWRPgWzwnMmiq1Dxk0ZFRQXYbI6RnNvY
rjYjIzM7FXLoN9548gO5PjT4hybz+ZPRofanyhguS/X5ISHZkQpB9dtvVKg4Y6ipqYH4+ET3CNEx
pzc3N1iYBUUFGEwtKyjOgGBu5tBkGVm+rAzIyqK/sDE2KzMLXL7ELCiFjDNadhUqfspoaGiAxMTk
kRbImL2wsKg8CBVlGMyqKhuVA0WFuUOT5QTTgzkQDNJXW+ODuUHwpCcHYTRkn5qjChUqTgumTJkC
Lpc3bYTomL28vCJUBKExGMytHzO2ACrKh31LckFRoCgfiorpq61JxQVF4At4i6EWzujXVKtQ8ZPG
zJkzwePxZ40QHbNXVYXqK2BcHQYLz607qxRCVeVDk5WW55WXQnkFfbU1o6KsHNLz/BXQACVntOwq
VPyU0d7eDj5feu4I0TmDp9q6+nOq4NwGDJY1NUyshPraMUOTVY4pGlMJY6roK6/ZVaPHQKAovQom
w6gzWnYVKn7iYGLfpW4DloZIIh7CiS9YB8IwNM1wYCQ74pcHugZP/tS09AzICmAwmJdfUAjFJaVD
k+GEMO4sOLthAoYbJ02eAlOnTW+GGTDzdFXsONj/220cdCMngYwZ6HHnXwF1cBY0QhPMgwXQAcvh
UlgJ26NRTOXB2LEwDibghDUbLoRFcMnx2Og7I/zMhZG+2z6GUGVTRXlZaUlxUWFBfl4wNyc7kJWZ
kZ6W6veleD3uZFeSMzEh3hFnt1ktZtlkNOglnVYjCjzHMgSySTi+pnlXghhwer3elpzYdeLw6zCb
Kn/hDYNlWCLnSTclnXTtOuk6+cT1uWGwhet9NbU0411QfzQM1jCxhYE+hVjPwSfFbqprX+irWxBO
qGlva8M7an2yJ1z/WTBWFCXvXZKuxlczT5eTDbt0EgYlDGHajl2kfgxRAkx9XcUuBjSGnOywJRBm
UuvosTAc2tSGAV8t5oQx1h9i9kT3bR4aBXjb8ZB1METCQk1YVJ7rWRAOzQ7DJs+u7H29m/fIMKct
oG/3tc+eiS03G8u4C9jUuvlNtB3r6NE23xPmMHOFnGjx1M339Ppoc9TNb0P21eJd/60dzdqa5g3e
fc6wBc91YXMgPA5TjLvsXSfbWxe/wEMve3s3eMLbJzUPjfVSbmlpiccC99b5MEPMrG5hNVYlPpiT
PVinWAO0ty2kz1w4m5azbqGnd9M8payblTIoSevmY8fM/rFUvb117b669tnt1YO514RDTcoJmmY0
KxXEpqttiZliCTCGU2Laalu8g43dMLm5hhbMN7vWOdjtJyxtMQsa6o5HemgJxmMGYc9cTxgmN/sw
aRmleWXQO7dMGTzeFoJ3Nf5wV5hPlX2e3q8gTNp8/Z8Mt8yOWYRU+SugwXpffVtvb73PU9/b1jt7
T7R7js8j+3p3NTT0dtS14VMbm/GuPdGHNznD9ZtbwnLbfFKBbU9HQP3k5iqn19xy/LLx+CXgkMKB
JSnVwVbAf+NjJ2xlaGr2erChpja3OLGdmmm4CcODZzqQcOCWYR/Hmo220byyE81TEwt6vXR0btoT
gjl4Ee6e1Dx47YE5zvsgFAxgf7TRmH3HY+xTaUz38ZgTt7f58Cn3K1OUPaxJO/HPJMdZ6+ZXhEnc
/xA9bzA+bK1pZp1My2CIcbI0pAug0ivDjgCGMwK92AkHfGE5EOab9zkrWzyyGWcA2ntTfA2TZjR7
6npPjIJBS6ymdBzgUPfNnt8bkxId9Dg8CHZQqOYsXxAqMRsPNdSHQ77qoBLTfgTC7BGMwEmjepeP
bJy0K0Q2TpnR/JCMs/jGpub7GMLUtFW37PJjXPNDHpyGFStzwkqvPPQKGuhQvY/RKFHOh0IA3Uos
pxiU67l7CCg2zXEbgbl7mEGbrNgQORDSNn3wfoL76PuJbuzo0Nq/OhJK3v44zf3Jx9luz2uh15iJ
+2ftZ559xuJe/Ay5/Zl7n2Ge7tO4/3S/333rzaXuW24ucP8cj5u3Frhv2pbnvnHbWe4b8NjWl+O+
Hm3Xbc11b+2rd7v7gn1M31aPe+LWWVuZ27eS0JEjRxj5sOcwA4flw3mHQ4cbD3ccFkJ7tVIJLUfj
I3q5RH6YhPZo5RLYLe/27GbbHuh4gHnnPZ/73fc8bujP62/rZxtfIaGXG1/ueJn9osfu/uz+Aven
eNx+P3nj9Wz362943W8eynUfesxCK/eHl4yyknn0JZ1c8uJjGvdBjDAdcB8IHmBfeCzBvQ+PP65q
cD/6mNv9WFe5++rNDe4tmxrcmzdluHs31bivwmNT1zj3L9Ylujeuy3VvWJflXr+u3X3lukb3WjxC
6ypHl6zDG7evsbjXdDe4e7oa3KHusbUl3V0Z7lV40bW6zt2xmoRWj60pyWwf1d7Q3tLe1r6sXZBN
XnecPcstCl53QnyWm2O9bqsly52dY8oKGDMyTWnpRn+qKcVn9HhNyW6jM8lliE9INNjjHAaL1WYw
yWb6N7X1Wp2kF0SNHp0kPXpQetnUbWJCQrfAhNhuljFBFUyEUFoXcCYI4sVi6II/wgsQBY1zlMZt
qtC42XKNG8o07sZCErY0QENTddhK8DylOlwYaNijgcnhgkBDWNt4XvMuQq5uQWuY2YjDrSnMbcQR
1oSryIzzmveQBBq9TllUMLSHdK/bssV5ItTSEnCF2xumNIc7XC3hAhq41tUCAcTSZUuXLg2MgF1a
+vT2ydW7PuTokjM7/KGvdtdHHyrLT/gjXy0Jt6Mwa5eGV9fND6/21QZGzCrwQxQNKA/FY5lSAli6
LLB8eOJlgePFAhBs9O9D8QfpN9IP8jAXrnXQEn1rOEfao1/935zCU6EB+I+//4scZDJPslz4Hz/4
IDwJf4L7lePPsBd248/v4Ta0/xUeRRs9OuAp+C3sQOtWuAd+Cb+AbfAb5epKwuBdAPfCtcNyvQqd
/bdgKYamoRe7DHpgM1wHt+Nd49C2HvKhDP3aFvy5C/bgs76G7XArbIQVOIa7YQNcDT9HywPwEnxI
rDBALKSQVDJJTC1zO3ExQeYadimW5z4syb3MLMZLfkkG8K7rsWz3QyfmsJkNQzqW6RYmzESxnLeg
T309PpmhS41Iv6iNxZNtt8BwQI/gc4eeUyg/z2v2mlORCKb6rpuH7+kZuuk2hcHaA/M6jhB69+hQ
BsP+EUiAjCLnkFlkMekiAuYvvhDUdvFd2mt4jmdZhhH38xAcKAhW5ZFgK54LWzcM7MvXEp+V9ZUW
Mq9H+u86tGZ//n7+4PdPc6XfBV/CUuazB9l+waY8Jxhysh6DXCpSEkTMEbciLzIM96JHIEKwtb8w
2A9VhUFLeXl+HgkECOuz+vBg+x+8su23eAi2gUeZGnpgDV7FGjyLI5rm7A/ZyN8YXvgbzx7sIAjx
4Cye8EqWrf0Q7K/qxxx91kJ6MFd9Xv15JILEhojr+x3EBUz0blRHP7aHiPpZF2rVajU6Np2bxl3A
sVw3L/BaDUNWi8AKVsEnFAt1wkroFEUxpDWUiqKMG54Ouq/Sh/SE92rlUuBl3sOzfBZfwZ+NjdfX
oSM6rQ5YXmCxEassjnIsWCttyECrGQtZGAzk0+bct0/eMNC6b59mn9fHelkf8bIs4fqfLhhY/eVB
tpMIDa2RRrIj0sofPLaM+ceAFx9bj1ofhWW3gx8K4cZQNqNlzFZtqrZQW6ddmb48f1mBNjvZlePK
yenheBvH8amrOqzEGrfKatLTlacES6zXF4eKSVE5X53GlXD13HSuk+O5ouKiCu6BItmUfd2B5CPJ
TFsySU7mXH08m9PHKe1qwYos6S8vzyPy0YAot76r1CdQXt6PFdyQG1glPyFWVuZDa6qR+LzEWxDn
SCZ2myDalRNblJaeiyOP9RaUlI4hg5c+b+ySK5/98i0Dh8h0cs+O26tLS/t6VnR1VSYlZq1uf/sC
wk3rzhtTHZeWn7FqceSltcS87s7REyevGFvKH4zLSFkQ6nmyROO8flnXO+xLWaWWJFOkPsHpXzew
r6wuOUEe2O9KDe5A92Nd9D3+ff4TVNmSUAEv2aQAkypMYBrMM82z4melXmS+OLXL3OVYlWoExmCw
9Wk5v9/VB1a/n63SE6X9JB1tv8zEVezuDPnLflr/VmwXqMLhR4+apuaQMRPStBVQrOVChkYD09ra
kp/XynvAXGQpLfEXYrOIvlxCK58iiAJjt8UVKk1QWigKHPN25L3IY1csW0oaX+g5ujLH5K2pKb1p
5uaPpjW1/e2ZWXfXj52fagwuiHzqJKnE8DxpX3/lz6tqj3jLU1zpyxdcEHnz18+/F/C6a11Hi6dS
9ePcxX+KI8YILlgUmug0ZzPZ5jwcvS2Wiy3zkjqYyyWss2WZc0lSh8sU53D0iBqbKGpMq2CPO+Qm
yeWa6jSxRKwXp4udIi8mu5MrxAeS4/o0rKNPVMbFkPGATTI4EHAUEBuD9VEGAocDQYx1P6GVLbHw
n37z9ysjn9wbuZg0kxm/JNLihR0HJ02etGfLryNfvHDNW+13/Jbd9mVkwqXj8viDOWePe2/nJb8u
LUn9fnmwfCY5j76HoTVbijWTYDXONoKIs5bYo5NsOp0EGlnDaDo4wnEaoN1WKKFQwaAvl6rTdCW6
et10XaeO1+kN+grdA3ph6wH2CPsZy7axhGV1zFaJFbfqhoz5H2o4OOCDrcHWHwY8EXEQDx6EX5p+
7PM21oS8hnKATOcP7ozM/O3AczuxrHQMviNUKmPwrtAKXrJLQcYnVDFFQgNTK5xtOt+0yHSZ2GXq
si2NNwW8JNnl6knx2lJczhRvRnlKdZb3bO8KfFRGZkaFO4RidtP/li/rPXoWh2Uosy2TcdCxmbwV
vLI3zxvycl6vFpSBaDCYcUgn4oDG4UoHa6uZVo/W7sv+2NT0XGCwnhs0uQGe9mMeaYWhg5fDwZvm
HzZyrd5SL2skopGw1sj+yG+6Vq4gra+vJfzGHMviyPfbfv3N1ClTPz46b9e5TZGlaUzT9dULG+uu
c5E8Ev88OX9NT1/VuLfnt665aGHk6DV//yjVRVbdOdDjDDhsiYO9LJiVXt4WmqtjGSCkh5FsDCNp
OV6j4fkeQbQJgigJYhpTwtQz05lOhmcAl9jFTBduSAwhA9GXi9VpQolQL0wXOgVeoP0uPKDnth7Q
HtF+pmXbtESrFUBkiQDBwqrCk3sdG4f2+L4Tfb4hN56GZOx9uijS2buQ9VoFc2TnkzsHEnY+SaY/
uYF5fwN/8Lsg8+aAnz848AfmHDpqcQbnkrA+PDSE8liO6yGMjaBHEltFeFEoZ6rTSAmpx6mwk/AE
G7qCPCAwLLeV0CE5bCzGRmF+JsoK14+vjk0izU9FXmDexwe/Ovg04Xl8mh7uDV2pZYDltEYpkZFZ
m9YteVgflynla8ulWjakHac7W5rFzZIu4hboFkuXQhd3qbBS1yU55+hWMqs4Vg89EiNqQCna+eg5
rELPgRi1vNAtakTDSdOEwWjAacLAMzpW24U6lIBjRS0rHl8QkX6oiExXQ6JUZ98+9DNw7mj1+rBh
WYKropV4+c6nSNrAjs4XIy8+gtOF/DRTS6zc58d2squ/+wCXxz+zo2NtK8hYWy1sD3VyAuEEm5BL
UoRSqCJ5QoU4DiaSkNAgziRNwoXwM7JEMOcJIYHRwhqiQcdHtIopYrk4XmwRF+CKL0ohiWDDr8HV
UXfSaqmTdLha6kAkbWKHiO1CGI4VWHawfq1LTq5c6/DaLVGqR7xaUsjt+SSyILKf1iuLLCMJj/BF
31G/KsTto/P3+uhbgpP/DMzgg7mhqkw2S5OmTzGXa4rMEzW15iamydxobU1qtyxwdjAdbJe+w7LE
2uXsSrIDE99n4rx9gtWOc3lq8irtbr/8dT9qXZE/XakMmUKaqUIoNo0X6k2Csk7FZu0Tgvdgh1uK
i9KGKl5wLl98SWTf05GvIy+vWHIxqXucaEluZF3TtOf2XHN0SuO05x7a8j77+OORm67acgdWU7+f
zNm0/o7IP47tuIQk7Nz/xtqOiyOHbn7+0BpaQ+rTWLDXZNyxLAmdzeG6vNDW5rocumwClxDPx5/Q
uHlVh5EYjTipEc9JivZ4PahoT0KfMukL8X0ii1IenL+HC/kkX4UYqUvi+8FbOeGmDC7K3LiZ72x/
recp7J6NG+8rHzVm4cIUf2D5+Q9tuW/F7RW1NcxfJjQMvMgfzEOP67zL3iCFhc1JXtfAHdl55Vcf
r51PWX/dcFvoIi6Bc1sT4tyZcpncIM+QF7CL9QvkRcld2HOXyUvcssZiFUWrtcdmt9lsdrPcY3Kb
YFVHEklyJ5lMg1W3V6fZSmz1tum2Thtvo1W3PeBx2zXX5ZlDZsZstol9dtZko1PZYANYTvLZ6ArW
v0Ee2EeGrGKtZHjNrdQj/aFhGJGr83jTLm48su7FOdeOqh5/+MPIish7Vz2F89S2jXdVlYU+fJSb
VTw+0R0/8Lg/p+DG779mpgz8jj/oy81cNv3hyPulqNAi9MCW4eqXBw+GknMsnsxie7G/3l7vbzFN
yVpsnZvZlrVS7vQtTzcKdNnW4u7BFUJK2BM9EjpLqy9lPEgCIwVsKZwDwBlyNjrbnJzT6e5zcBO5
WRyDSz6ucNKqQMoqW8DGQqKc6ElkExMLPAWhgsaCjgKODSrDAPcewX66DaErYWw5dJRTWZibpekp
K6XOlKuk9Sk3SjelaKg06La7lU/xp5cWxnHYRMVKc+G/4iLwKk6dsi6iRLC9Yp6vkTDjt0a+W51n
bCOONa+8M+ncsX+Y9It7yAKSfGt0Zo5xXOTbrQ++dm576OWzrr6ubdrMfztHV71z3uyda+tmxlm8
Vt9dq18hzrHZr4w9f/vl1e0JpoA1/eblcx6vO7uJzndhHFtPKDuZBaF6wjA9LGdjWU4W88SJfJvI
4TzMa8q1qIjqa1gCrMymsSVsPTud7WRFVqPVVLCsVjNRu1jbpcWtx9bB+WugANd8Ql0DOmCWvNsa
KCwMnlhpiJfOW6Ve/raB/sgLT5H8gf407p98xnev8hk7cbynR9/iZnArcMUphs2hFghag9n21GCF
rSg43l4bbMq6IKszS0oCvaE4uTg5eX1+kS0/v6ikvKg6H93CiszMuPyHS4W1cSFLQmkc3JSVVJhU
k8QmJeVYJ2aSzMzUG3PkIu0N1jjstuAwHyYY6JePmpVCo/tiHHRfNhgrK/kn0ItRhI7dEXNZROXC
l5JWXIRP9eNoH+xNOsv58AqddNp9rI9dePOn505qmnPheY9O9jtb8wpXT173m+VLl5Cq/YImzedr
LZv6eq0utfzNeQcOaIV7H2HOEXxe75KmsyZMKr9VHmV3uG9ZtW53RXmhkJQZl1dpsRhKnXtNaWu2
OEc7B3TYXmXYXnfirtmK8/uK0FR0+kxp1tHGiqQ6pt7ezC5kl5IrNCtNHdZO+xVuE487P8axFvam
6rTJLqNhvV7S+8v11WlSsVQnTZOWS7zkT/VXSA/59ZB4g1mWvNuEWFsN8Ryo9CkUxy/mqivNkS5S
R0apP1HahDYIm0x9du7OC6a2vLmu5ZbRCWFy4d7u1vsW7fhd5NmysvmXTLnvnOtCK5vm/4o5tiPy
6oKLVwbTS3ED//LYKc8MXDX9QOelPZOLBnpS0i7AMTs9+j7q9FL0f1tCFi3LaBPQF6l2TnLOcXax
GiPVuQWddVl23KiXcft1I8T5/SY6GVhwHjCZMidmzsrsymQT1wqPZMT81kDhDxsw1CmKNE2R5Snb
rWF7LdRm0sIdo0eF5syYTuD6Ob+rzpRslZmZ7aHHv9q6vmp1dn6TVcqY/nhCQUnRbQt+QeQL25eX
pD5rybPHuSJ7Pt5yk9/uKDI8l16OvTg1+hafFevFdaEZ4xPHpyzkujQd5iucgsXmw10udVzXM1Z0
XK3+cmt1GlPM1DHTmOXoq9IOkxkCjKy4rN3MtYzAMNjDiVrGtVb7iN8Kjm0mmfHcMLQrvx502ZfE
elRRp1Gu1FQalXUN3YvS2Ai3DA5oh5UdHOAnVMBnRW7a6+y65bzbHmqf9l/tPQdYVEe3t21lG7sL
S+dSpJdLZ0GliRFEQJoVFdgFVsquywJSpKlgQ2OFGDWoUaNiNLGLBWPsLRp7rNEkdmMXFXhz7y64
Kr6X9/3/+/O974sjd8+cmTkzp8yZc2bZJfl2zbAFYap5EdVR2cuD/KSKoqT10XRx2/3CIX0O7VkK
W+fmTHBwgG+1V9nZyIbEXc0urU7yJk+4oZ2/YzVYOYi6HEGE4o0JBTyxMBF4ZTIWYbAaQyWwRMKm
NwoENjaWDWzj/qwkloaF2tiIuCyJGTpZROXVLH6ASORsNpHb0pVXPzCUSqnNrdMtAMc9ICOUbsOE
be39BKTvJfeqTTdbPtrdjbbSsMLqmZcdYfrtjlfwJNhq9xFD0dvDdFrzkvw7cQbO3vF9+45BvrF0
MskZv+Hz9r6XToMgeuuutVY1KZaBJvVLU/yPCq34fAHg0ahjGLYX8GhH3brkOiM+iI9htGu09xCf
XLrcQ4VUMgoNK01UNuWuPAiutbP3EQlthb4gYXMQ+gkjhSnCIiFNSF6xCIQwJBQIlcJKYZXwcyFd
KPSrZMAMhvtEtqmZKWLa4uu4wFoA8Yn5xkwmZwFmAQGH7AnifirPfkFdc+npXVBH7mNtVAlszAZY
foAPtV+B0kPgDywggPGBBWB7b4Z3/NzxLGV9lCs7cHfS6MmuLn58iXzh+OXbRicn3pk8piFQEhRa
F5m+NCigT25x4poELPWtdcetjjYz4xZTDy8XF2Vker+Ig5tnw4Zjs8rd7IjDNr2GxUWfyi6q7u8H
9nsgyHcawM4whRq2Boj6i1JEqMm2zkuhw1ncAFMjZ7GzkYKXbVTKG2+kMlGZskBKVwtjICPC+Hyu
WGwsEogEglpDodjQUIgZCuEdwK5gM6kw3MHQzzDSMMWw0JBmaGZuFmS43YwzXyIQQjRDMu55/1bi
RXfqxgQbBBwOJtrkFkp1BUcd5ehF79xdtwvEGljMb3bO5XATc2O2Dtm7E7i9mpyWjDnL0VEmCdbt
rki5X5xjUnJS0NvdwN0dHxg/l9wPQeAxkvYLdVsZH+oLLUYwWi0ComcmFbOSN4op9EIQs5IHMJ8V
yqqkV7IwOroEISMdBGHwyciV3ADUnWGXmkGw5vnACwbHkwicwMhI9zPuqo6OnTBC+2Xfvo6aN8ux
VEgrb0Y8sFQP6FToHMgJ8RB6ONjj7gG2AU5+Ln7ukbaRTpHuQ+lDbHkCZ3tnxFkgqgURpLHEXzJD
0iy5L6HRJb0ltZIFkpWSS5I2CUMigfF3SrGysrCz62VrbWttXYvbiHHcBsNt4B3EaEJFIJ5Sm3AH
3A+PxFPwQpyGexKeQfh2T858N4H5fAeBDR/EqkA3pHL+knpgE2r7jyN5b031+lhTYJt/qDiG1tCp
JyOexSLVx4/JidswBGHRV+ycyxXIknvPKwO6RHZaKjZmjKuXTDqdOXcemmkT7UBpdLhjTMLQYNNQ
03Y/pLxvnPOIiD6D3+7GUsujEsYkj0me02XTQMam0Kz3bDoB2LSzWMEr5ZG2TPuXbZn/b7FlRs+2
DPj/hC0DXklTRqBhIDYhPTuZe0pDnVgMVDDcOMl6rLHMmjzbmGZ0Iz5i0sAX2DTQjY3IqMSKPK70
ksxUXUb5vh+C9TSodURYzcikIbcaD14bkZL4eNbeWx0n/KW1pWkLA/2DasvGLEJOL+i4nzm2+Oah
BbBgbGbp5fYZ8acLZ3yeOjjujHravJEQ0nmxQ4atAmslT+C60Gg+ComsUYHIThTMj0T62arhMqaK
qxKVWWhseTyewMzMxJzF5nLZ7FoDjtgA/JDLt5eO58Cc8P4GQwyKDVBtJEWeTgKWIMBAAsIpDt8K
xFMG5hBpwyFU1EnpJdW1++aTAc5fUjPvhVXv9MDQj6nI/HJVVnLKrerhDX1zd8JpO81TN+UtX7uf
iqnmhBUlZa3wlwYib1d2XM5UlDg7drjQ2gpBWHWJCqnq7Gxl8UkntBaJ3gEOQAjlh5qZcv0N+hsk
G2AcBoj/DQyAGbLYYhaLLSR5cQa8CIVilRgWSdnhDiw/ViQrhVXIorFEYlEQa7sIGPd8Pt+AzwJe
iDx7Prju7zY+HpUz2mlPFGB0XXsP3c12ivQatT150+7O3Q6Ttyd7ubmgDWxWcu+3f2CpK1IH0Bhg
xYadv2EGIE+QQlNCLVlGNG8zIyNvP58In9FG8d5jfMoEhe4GCM4RBFiTIaE7AJQSmOcrccUsIRsb
p0ZLAU5m+gaNkDFvIuQr8MV9UV/XiRJfCYp3qQzHg/nB1sEhwZXBuqTPVZv0peplfWTSl0pmd1TY
SB6eEko3eumdv+74fHdt/0GSB8+fsD/chW0U4etZElnflDDIMS+wUNUvIvRAiexgiBNbEObtWtB3
wqKYWK8cb01hVORnR8z72h8WeplIbLLlflIhy5hvM2F47BSpf4R3r1aum0RkoRjhHSHiGHEsS0cO
musvJX99oqrzLlpBWwJZQTNDR3KEFkI3YW9RrGiYKFfEsAKJr6W5icQSw2olFmKJxMJa6moxwqIM
JE/hEmvcOigOisPHQCqoEqeRf6sPN5VAYoEYF6Ni8nYBsTJptDDnc7msBkNjKuYI8XlA3hOQh5CP
D5CdD3UYAVPvSq4EvXszBNpLFAZ5AawXfukyK5FdgI/IB0UrbDvKx7MF0TLncWK2XWCl1zTgjaZX
2lYO3DkQS21sb3eUW0V9ZsFcxhOWTMRDnJChjXBYxx7yPCsFPugCsGxTaFVoBp9pzXRhRqFRzApG
JbNSVCRh+UNRSAmCmpgYowhKo4JsUxBkm/J5vFouR8zlcoZxc7iIKYdLxtdk2N0PSUbykTIqzmYj
iNYJc8M5pOflsEjb4QDbYUFcPmLUFXH7kDvdh0otdTd5ZD7MIzNMmvYqmEmG3l7kZble5A0k4PNO
MCLsAjiwLXO2Z32+jMVctXMuSzBEEb1ncCuW+mY5OF5mT7cNdUbOtk9ylFmmpKQEouGA/70QRF8N
+OdAB0LHOsJuTAd2EBKM+mEBzD6sCHYKNoSVxM6CxyIyNAtLZ5cipUwVu8jAiAZSKyNUyMKZjiwV
U8ViGrANOLWAIMZkTALBRy8AAoExWQYcOtKLDtP5LiAZQRAmymKjdGhb57VQC+pNEx6fV8lDQmhx
tNG0CloBnUajqaj3cIEYtFtKIoVCUkNSdZcnbBUK46gKVTFR7TtfMJVtggezlbz61F7roj4iGPyn
r25v26Dq8Pm2f6slfGhxHqwhZYGOfrsUhJlN6Bjyh7QCH+Dd/wRSYEATQ33B0hEUoWE0eAB9KH08
HaXXQcDTYZNQFGFAEghkSkgIJEWikOHQCKQSYkMog+THEKiVwWDxWXAOUg5YRdBtnTdCuQCL0hgI
ykT5MOnYAR+ksru4kwIWSA6oN2uZoJBOD6bWDyMn4cgje5cgxsc7ZPAVzOLtXjQEgiBrXUmEqv6X
ZZV+gWnw14gVMh35HfkdrUB/1xbMEpuHddCUtKu0q3Q5g8NI+WR5yMxknmLFsfay9rJHsc8bGOvK
IU5vzhyuIShjeRivgtfB6+BXg3Lhn/JP+af8U/4p/5T/LwWct/3R2O5PlJDfKqOFYRAteOtgBKJD
lToYhbygPB2MQTyoWAfTQIxVq4PpAL9EBzOg4G46LIBv1sFcOAbaoYN5kAtCJz9FhKFgLh4SqoMx
yAohKJhG4UfpYBIfS8F0gOcg5ToYgyyQXApmUPhGHUzip1Awk8L/oIMxyBZppmDyDyrIkBM6GIZ4
qLcOBv3RYzoYhdLRb3QwoInu1ME0yAS9pIPpkAXG1sEMqKibDgvgHXQwF2nEwnUwD0qia8ey9Xhn
6/FuAPBiHS8GAG+v44UD8AJGXx2MQTjDg4J5AM9kjNLBGGTC0MqKvInlMYp0MKDPyKRgEYWfp4NJ
/CQKFuvJUKwnQyOq//c6mOy/jIKNKfxPOpjEt1KwKUmH8VAHAzqMqxRsTvZnsnUw2f81BVvqzWup
N681iWc66WCAZ5pQsD1Fp58OBnSYvhTsTvVP18Fk/wQSZurJmaknZ6be+pl66+fo9efo9efoyZ+j
k/9q3JvwIvBBigy1skCZqcEjlGqVUp2mUSjzPfCw3Fw8QZGVrSnAE+QFcnWRXOaRIlfL0vLTcEUB
noZr1GkyeV6aOgdXZuKabLkeoSy1slBFojOUeaq0fIW8wKO7MaiLSJQmLVeRQVYLwIS4nwfhgzt1
d3PWdXPXdhuUpgFTFOMRaWqNXD1MWYjnpZXghQVyMDNYTaYyX4OnFeAquTpPodHIZXh6CbWmyOSY
MNCqpioqtVJWmKHBFfl4cbYiI1tvLHhV5GfkFsrAUI0SlykKVLlggrR8GRilAB0yQC95vsYD75pb
mZ9bgjspnHF5Xjo56B2p/K7OPa6I6i5T5GfhanmBRq3IIMWtNzsY3k0rmFqAkwLMopHnkbpRK8Cs
MmVxfq4yTX9SsOY07UrlahywqwRTgWehRlWowWXyIkWGnOyTLc9VfcBQtkajCvL0LC4u9sjrEr4H
0JunpkSlzFKnqbJLPMkpCjyhFEgOqSEZlAblgx8cioAKQb0AUkBFoP5haw7VWgo9+G9atWM/bBuo
16YETw2ov9/HCyIgfwhHm9AWtBndiG5Hv4NWg5HeAE+24dAgMC4DjFACOkooE9Ag16sEGBX1TAMY
BYDyIQ/QEgblgoJDCQCXBWWDtgKqJgev5LxF4CkDPT9cqYLqR0IaiqYMtOeBVzXgD6fmJVuyAbbn
FWVR9UKwpq7eGeA1D9TJGRTU/B49jAz6aCVRAJsGeCB7drUW6DjEIT9AhYB8AOTUAzXnD6i5v0dt
ECUrLRfFlBRJ/jTUiGHU6nGK5xLwWkjJS8uzVjaZ1Ao0lJQKqF+oJsflUVrVUFLFoXRqbJecIqFk
KAZoRDtWrdeiolYtA7NkUBQVFG/F1FwZ4NnzvNo62TcDcFRI6UhG9VWCp4xqV4EWLQekBGS6uRQ6
Chk6WnLqSdrLh3yT7bkU5ARGOYNX0g7Su2fqaVX5H1H+6zJ6R11GUcoCODVlLRpq3Rnd1t0z79rZ
P15XsJ4ESE60vGio+br2DUlfy6sMYIopzpWU7ffMqVbOae/JVE7pVal7arnSwoWgpqKeOLXaIoob
eTcdsmcutV/+Ow1lU5JTgZ3gCUoxVTwoib5v+R66/eYJ4BKKwyyKRxWgUAKwXVwUQB97v3d7ZBxY
r/yj9n7wYNCq6cFrKvW826d9qhzM/inPWAL4+dinkiu6odu1H1HGzLAILBQLwwIx70/Q/YSvholu
TnM+GhkPKeE0Sk/5PXATCUaW6mooBHU+BT8x0PhPfNYHhciIVwDBnZ3aT+lTf53XGNJ9eh/dQl5p
6sX8EMSGfME5AOemafLBWBAzxiQNwCHjhLhBOGQB5iI/tf7es3tcIPDuPY+z0hsBd7/CEJKrzMiF
eNRTTNGBddQQKofQ1gS6VwcyDoMwdCo6DZ2OzgA1BGqDXoMmaxinakwIRuspKhodNR09SSYEdf2R
NMkookYynM5yqR1Q+5ILM5CmGslAgPoMgWEvA4JFp7nyUMSMBhFpdLYrHcbgmgAExpoSicGEmx7G
YplVlQXUmypxwHWQGyAXKIvcMn3JQtjoEcPE+Rks9yEjnHqfNBnZELt33a+rxQvzmmqEXkQNNoao
QWOaUARGELbHWsPL8Z0jFx9t7RptCZai8nIlnOloMmYgso1QqkrUZBiJO2U4415SacAHAaeHlxVh
oe1s1GMo6mVDWJPtqMjkXXuCUqnBwwo12Uq1QlNCWEm4RAAR6A3++XgR3sMlXC9vUPUDSPBvOFFC
yQoQoYuQ5EQvEWFIVpgi9pC0gmwQi2nANAKCRyIZIkaCXJanzJd1LYz9qYXZETbahZnpt8vkeKIi
K5+M8OIjwoga2JbgdisQhmkQWgPzIYBnIzUwDG0tmXAudWOk9BvfZq9Lbb38oopb31gvORg57tGp
/rfPzNiXE5OQ/uwLZN+gC1G5nvZ95XtO2G01GLC1svBK5K41s3jx+3u5Pmn6g2tnfSrM/nX6FydN
I1fMjbb+4vhGT9t90e7lyotGVsEzpALplV3OzzKD3WHvzg7HASs358J1i97s+D6jsqZtZFP1pMkz
NzzZNm/5ycCV8ZMljnWxV4gXUJ9nB9r6VO+ufZArXeXh+2KTx3r2hPTZ4zMXNRZwa9c/+fEpvj1O
WJ9x1O2id6Tpw5boBcHxiSYnMgeXrFlXdyil71c18VPyad/57S2z35WQ2eeL2GOuFT75kz6jn1ry
U3Qtkl8Lfd1ady0RQYHhL69+TVS/JERAnJa9MA7BpjOB6dJoDBQlqpeRWBirXkhUN1QJRvykeqRQ
L7EbXCH+ftDMzqNL1f95e6vhQ3uh6b17TzE81fdFxv1roQSfXKMIhjsxGoGCF8KSRPAwY0x8zPJE
EaQasf7xpR9jFw7u57G8X8afhAHZzMfI77Co1ds6KGkRZWu/rYh2eHJiZ6xm2VBHjUvhxtr2tTHz
xkOD7hy5Z3JZsZ+3rPwpEnHgSN2xV4nHfvhqV4ryz4x+q/tBDxccWnjWYpvBV6bceecvWa1znvDo
wcqC5llXpTP7NI7dGZh3esp6u/Zrd84pWLOn7Oq4AbX4Pn1Z3iYQetDuOS+YG57jNG5r4KzrDO7h
1Ozju6rCcjK/adnaMtP3yBNUUF76/PT18GtlHTduNHe8uHaWu1F1bs7NuC2By8rdz/T5xdcgPQD5
qnqs3dQXIzNmbRjeIj0/ZkbyJDOf58GNTTWcZaOnb3TbunTF0bWX8C17CNPJuJjrsjPhWdj1UcTN
OU6Kur2qX5+uWnuiKlxdxAM+phT4mHSdj0mDT2q/Qomvv49owM/8jbuadDhS4GMCvL19CW8p6XC8
CJ/uKlE98f9kbVzKcIDpYoPi4hO6uqOf6P4/+p5dxNQ3kepvEnOWTI2D7Fp3n7Hs892w0MCnBbNr
HH5fIIQSL1rU8HqfsGzZ9TK8vuHM20CzW9vbbt7/OQ3d0/TzucJBI/uvfjDqz9O/KkaYFdzdaFGP
HXfu1yQb5mnVmJp/cK2JtEb+46qdawunmN6taxA7bKx0KPr6TKB00s2NDmdN2lzvnD5sPDzJ5klD
fV2tc8ezKLffp7/CQiYcP75gTi13HPrrTx2ccL/O89tCrsyMZE94cX7guhF/Fqkti+0mTPX70SL1
+3h04Gd5jFXJUxrpVSur1yXFXqg+93pPeKvX7mTuF2cTo4TEvd9WTCkf9WPpcHEdc1OAoumet/0M
5r22M+Id198ev/u1kc73vCKqn/fse97t4sDxtIJD5t5fjp5Tm7x+6o4DX3ynmUmpz5JP7nqwkRlV
lN+wtMNMCOOqnrd9P7KDNdaHCCakTQFNfrU+uvQ7Q537QfqtylGQWE/dpUWBZ0QiMDwPgCIGdK0Q
hrHeRBAR2FUnkFq3T+bzFEG5Wo+S5oMNRXkfJ3TiWhH3cYehMrzoQsTabQfCX9vLfb8t3DCOmLlg
y8TX6lsdxwP+CFI1DsZ5O8ZtOvzs7K1pt51UBWcf3Pih7OHjFN/hVTX3BOfV6F1h7P0r3Bll/eI4
aYXt+YsYV064DjfhSjeMab/Uia1Bll94PXN5y669Y5OCvUbfcss/+niQi8UTq6Ky2vUH6s595/Kg
+Riv9dZXlbdP3p6kTqoxyXc5tGT+JjOrvcq5v6Sv3DswZ93hB33m3Pzec21psTRrLFRWsxgVXM2Y
H+UQfnW+7d46g5/Ey0dfLvBW+1t1HnLeb58QlzngsKXl6v0OUkV87Kr7P9BzPdTmj20u5dkPqKo2
Ci3/6pgmMDoOeJ/FwPtM1nofwViDL+JaoV5rDX+JtB5amrXsQx/098Q6/sD5+BNehK9vAOl6pKD6
N8Q6SYo8eYEmLU/1V2OdywH5b9YfCo8eZ3LoxIC+ia2v14p3uHm3COMSDk180NfnYpTXHKcts2XX
reMn7fhh4KlK2qtHhbunH/zm7LcKVeZ4x8zbW7Y+mrz9+MM17cKvDYbZOnueDL2YgpkXbc6T5UUn
/XLl8dU9X008WHWtMgYJmPe8dQkzxSr7s+MXW4tGek7Y0gvblDJirEVGZ1V574dnsV6DpMUaRuoP
Iy/UBrgVHubdtZKyyos6Fufml16/33dWw5JxvNEucSbpY7yXnJ4Y62o7Mjty+lXPSYL479s2m9Xn
Puz1pejVUcH5ybxnNUUF/gfmly47NoZ+n7ah1mfrq3kjJoVNGjp5Xv4Ga7cBx5SLIq6PvV3pMDNH
629qYCcgEfuePA7z/0e0I6CzdJmFEUx9DZeeo1Tejg1p2O67dmDtrJ2L7jYHh0Uc+Ikw7R4gRjCO
FRtKBAlnOkh2w96PhD4Ko3pwUPMGGXr9UB7fYjhzaRoD5s1QRdY/KkjaFcKiuXduG5w42eKBdPbW
5SkGV2dsCTY/9aZ51eGt3w22MVcyFRU56DLb/g9yN+WV227r//Okp/X83Yxp/nvvVdxRpUZ+Nef0
sRNXZrbe2ONyvPz+4W+9z9ZtP5rxo/8pE5s9RVeDF240L1hiM+XCpk3CpBnPFv0gj17o5LBozDR+
8EGRfPyAlpPrJgbFbUgfepW4c0dqeXPqk0vS6jaRzQxZVQYdW/BkIRLhWdZ/yo5O5KK8LfrqJVQz
dyMtn3Ns8WWntPIBjyWLDG0CEYu6Zvr+Bd7bfgs9kNhn1+qpV29nBtQ/s12w6NiG4qTBQefU/b63
ewEc1BrgoOZ0hUf0edrvnmT9feHRR46A9FGBIBryA67J24vyUT7aqhdZJao3/ifCI0eil7ZqlR+h
UJEX4v0SI/HIxNiggLBAb3f/wMAwd2l/qbdXL8JOy5PF+zy5J5JM4YlyNXmB/j+6t/nVbDzcZHDp
xfkPvmy/XHfqDW+W6O6aACdhUceg+LVFDS5zP7u+OkWB/DavYtDkXyrHPSqEfmmJyH2jbB73p+up
8jkn5kkWL92/o+1lxZW0G+6E1SIH96KQ3/svmPnthakBF449enpyxL632defyGZ9eXufsG357klv
z00/QeuzCy6Kd0RfTdpqXFs/Zneqs1vvkyvaG4f7WcYZtwZesEoL6eO/MUVsVDw/WPAa2jD319SA
tY4tGW4DxNXJN3PvrnadXz+FV7EcWlFsz2h0UaHbXOw/X3h1/zLbgXtihtGLk9QRG/rKrsydxBy6
peNOXRTLf+PGVz6rK2KWlVR6D3PmLdn8/HrvJSH3+wfrh1PvHILT/Cl7kOB7l+btmNCf//ros4rF
nafei5R69Bj/SqSkKVBlpP1bIqUuSpqenfV78R+9tSdvBT1sfvvr6SmZR5xvDt9+HKqpkIzcbz9M
2PLNy5zzdR31RzcXWZvbvnh548im7WGwWcC6AQELVK+P+axymrHNYItG5LR1Y+ENF9av0+OuNYY0
bPUVVt8VXLG8vEN2MjY+OGZau+mVXt+eXVB3d+CPv/3ZFiZJhe8NmTKhqPQ3ZUcd3jx30YyFe0ab
NRkR9teXVaTNtnR23hf1eVDExKkPr56deCXOzS/4j7AweA3EMXhyLsr8RHh92Yan7vWpzjd211fO
NiraNOaN2HGNUpgR7jQ0aFrw9NBbW/cfmzPEon9Kzqyjcwal0KAjr4jQyNhrplN2PRf8ecXsmpPV
psFPiq873GxhVQsvWwX9FOlVg30JPFYDAsNEdd3fmLK9l0i+u+pqqj5Ank46tbFQL47+PRqY913N
wItH6LcaAa/RPRDzAqZ+FsK/nLg7xnSq99YRI73TVPeeNj0jMvWGcLyGEilNblUuf/39qaUOVfZ/
4T06/APPhNXAUHZcAhGCuJ1sbuArFX8U3chmjVDyrEs4jRWnt7sV7rvAThDPybeYNlyhpPuZnRv5
7ODigFhpkcmFtUUXogc/3zbY8yxjf7Fw2KbHpt8MDMkxv6nydz1Wf1Ux7ciFhRHbzh+ZZvXZxUHo
vvWRsRcnQg5HPm//mrMs5umaL613TtuwKdrNat3c6f2XXN6x5F7hcxtG6sPsuRn5ZbE2pr6qwZ/l
n68I8LFdefPo3AexViPHjipj4m3DzmUWnRvrSBx6OND9wsay5syRS9O2HFmRHvD5WihzyqN1Wydb
r29xsrmyOeSRVcXKLUN/vm/33L1si/lNa89xy6rEhon5B+UXJ49zP3C4OTh19UK7HyYsrUGsiRrE
/J2W6F41CAegmP9xc/zwiHzv4GbozLEplTDRt0WDdxe/MJizu4XmxQcnKkEEguPVy9vHz2f4R6Zo
eTdmxGr72Ce9Fky99MvvLxtPdbBufuCfSBOpbzQRTvi9k7WGr7YIDX854O6wrFl5Z24eUb8p+D7l
zwu84ulZm1eNT7+OrOgXvX3wpecHNg376cwMoztOQw7dbl0YWnBi3eBNz661njhndmVzeq/IgdOw
n2u9qzJT9tXsDMA1ztHI4cfLL6zKyot1m1/aZ6xiXN8s93PWOyqmOjef4zouHHi+NmlEX0XWt7Tn
dfjTGIfTAbiypeRWMyzq7fzH6MYZal/63c9Ple88tXp2Z+TpWS5h8dLgw5ttn991TH54k9meuPHx
m4EDRgWfjPJf+YckbtUVz8uLpCWXQvo3atLerLq+Ycv4fV8vmf9z0ptxrcFbxsdZDxjl/LT9pSxk
mtkU5dT06Xcbqwwh6L8A5FGOmA0KZW5kc3RyZWFtDQplbmRvYmoNCjEyNCAwIG9iag0KWyA3MTEg
NzExIDcxMSA3MTEgNzExIDcxMSA3MTEgNzExIDAgNzExXSANCmVuZG9iag0KMTI1IDAgb2JqDQo8
PC9GaWx0ZXIvRmxhdGVEZWNvZGUvTGVuZ3RoIDEyNDc0L0xlbmd0aDEgNDYzMDg+Pg0Kc3RyZWFt
DQp4nOxdCXhTVdr+zr03e5qkzdKNNjekLZSUJm2hpYA2tLQsBalQsAUqDU1oC20T2xQoIi3IogV0
GB1lmxkcZnQcHU1BBcSFGddxR8XRUXBnRK2K6yDS/N89ua0Npv7jPDjP/z9P3st973e275zznfOd
c24aWiAAYETioGLynGlT/pb0+gmAXzcAxK+eMrm0DDLYBwB2r8ZcqVMqZs2RFWgmYng3hsdNmTO3
+L20DzIw/DKGb5xROWfqonGJjwAoKwHYw7Pm2HPbjq95BoC8ium18ybPrPKfXt0MoNEBSN6qa3b5
Nu9fUQ3QvB3zLK5b7ucru9yLAVbOwPAHS3z1zTvvm7cRoOU7zP9RvavNB/GgwPqaUJ+uvqljyett
u2QAq8YAxBQ3uJtX6k+8XgGg/wyg+o8NHpf7xMlf3Ia6FmL+/AaMiG1QvonhGzGc1tDsXzmvT2oH
YMYByIc1eetcJy86dQhg00oAma/ZtdInnStdgvkPYn6+xdXs2fNe1XqA6z7A+lw+b5s/uAxewvbM
ENJ9rR7fA79JvAfAj+nsYhBsK5Hd9an8pm8WaSd+BclyEPDnJzoUwvPJbY8+c/aeczfE7JXfACz2
i4EQsJxc1Tcb7TQO00/H7IUYTB+My4Q87AEYJ5ZhQAeTYC4K+ZKPQjHcZuYBkIBcslOSB1kknT5n
sHvgJVYiB0Yl51gJp2K4W0AadAK/QLCoUHDmHJ4HC16t0tS+anhKriJ38UB+K6RxdZKjQk+ByGnn
sJoHQg1ix0EFt5/Y4T+AJABteF+LdwHew8Xbgfd6vBeIedb9J7qHguxXMOFC6hsMyXYo/U/Ksd/C
yAvdliiiiCKKKKL474E9QIgBRmWGRRIR4skhHDmRFSnDQuoL1LwooohiKJCQp6K3/UseBDnIg334
bqJEVlJWgQpZDWrkGIgJngMNaJC1oEXWUY6FWOQ4iAt+B3rQIxvAiGykbAITcjzEB89CAiQgJ0IS
chIkIydTHgbDgt9CCqQgp0Iqshl4ZJ4yvp8Ez8BwGI5sBStyGqQjp0MGcgbyv2AEjEAeCSORMyET
eRTYkG3I30AWZCGPhtHI2ZCNbAcHsgNygl/jciRwLuQi50Ee8hgYgzwW8oNfQT7lAihAHgfjkAuh
EHk8TAh+ie8VE5EnwkXIF1G+GC5GLoKi4BfghEnIkygXQzFyCZQgT4bJwc/xvaEMuQymIE+hPBWm
Ik+DacHTMB2mI5fDDOQZMBN5JuVL4JLgZzALZiFXwKXIl8Js5NnIn8IcmINcCZXIc2Eu8jy4DPky
qAp+AlWUq6EaeT7MR14AC5EXQk3wY6ihfDlcjrwIFiHXQi2yCxYHP4LFlOugDtkNbmQPeJCXQH3w
Q6iHBuQGyo3QiLwUliIvg2XBU9AEzcjNlFugBdkLXmQf+IIfwBXQitxKuQ3akP3gR26H9uA/YTks
R14BK5FXUu6ADuRVsCp4Eq6EK5FXw1XIV1FeA2uQO6Ez+D50QRfyWliHvA6uRr6a8npYH3wPNsAG
5I2wEXkTXIN8DeVr4drgu9AN3cibYTPyFtiKvBWuQ74O+R24Hq5H/gX8AnkbbEP+JdyAfAPy23Aj
3Ij8K/gV8k1wE/LNsB15O+wIvgU7KO+EXci7KO+G3ci/ht8E34TfUP4t7EHeQ/kWuAX5d7A3eAL2
wu+Rf0/5D3Ar8q2Ub4Pbgsfhj3A78u2U/wR3IN9B+U64M/gG/BnuQr4L7ka+GwLIAco90BN8HfbB
PuT9cA/yPXAv8r1wH/J9yP+AA3AA+SAcQj4E9yPfD4eRDyO/Bg/AA8gPwoPID8HDyA/DEeQj8Jfg
q/AXyn+FvyI/Ao8iPwqPIT+G/Hd4HB5HfgKeQH4SnkT+GzyF/BQ8HXwFnoZnkJ+h/Cw8i/wcPI/8
PLwQPAYvUD4KR5FfhBeRX4KXkF+GY0G8Kb8Cf0f+O+VX4VXk1+AfwZfgH/A68uvwBvIblI/DceQT
cCL4IrwJbyG/RflteAf5HcrvwrvBo/AevI/8PpxEPgn/RP4n5Q/gg+ALcApOIX8IHyF/RPlj+Bi5
F3qDz8Mn8Anyp/AZ8mdwGvk0fI78OfJz8AV8gfwlfIn8FXyN/DV8g/wN8rPwL/gX8hk4g/wtnEU+
C98Fn4Hv4BzyOehD7qMchCAy4IoL7AMKhQJY4KRhK79UBEgjbAuKyLuFLCwkuTBbUBRRRDEUlErl
D31XJuI8hwwh6rtRRPF/ASqVCjiQhPuuXATII5RQRogTyoSFIm3YUUQRxQWEWq0WfDd811SIiLjH
qiIrivpuFFH8VxETE4O+Kw33vB/13SF+2BCeNeq7UUTxM0Oj0eDL6Xm+qxQR8XwcE1lReNZIL8pR
RBHFBYRWqxV8N3zXVImIeD7WRFYU9d0oovivQqfT/UTf1UZWFJ410odcUUQRxQVEbGwsvpzKzvv+
nIiI77a6yIrCs0Z9N4oofmbExcUJvhu+a8aIiPhuGxtZUXjWIX4IHEUUUVwo6PV6fDmVh/uuRkTE
d9u4yIqivhtFFP9VGAwGwXfDT7w/6rv6yIrCsw7xBY4ooojiQsFoNP7Qd7UiIn4uZYisKDxr1Hej
iOJnhslkAjkowk+8OhERP5cyRlYU7rtDfPkqiiiiuFCIj48XfDf8xPujvmuKrCg8a9R3o4jiZ0ZC
QgL6rjLcd2NFRPxMOT6yovCs0d/SEEUUPzOSk5NBASpdWKReRMTPpZIiKwrPOsQXJ6OIIooLhZSU
FFCCOnzXNIqI+G6bHFlR+EdYQ3xxMoooorhQ4HkeX05jwnfNeBERz8epkRWFvwbrLkzroogiiqFg
sVh+ou+aIysKz6q7MK2LIooohkJ6ejq+nGrDd80kERHfba2RFYVnHeLLV1FEEcWFwqhRo/DlNDYx
LDJVRMTz8RC/Bj8lLDTED4GjiCKKC4Xs7Gw84OrDP4CyiABLhBJZkRXxYaEhfpAURRRRXCjk5uZC
LBjCd800EZAWocQQf74n/CidGDlTFFFEcQHBiH8owwCsIBF8cyVSGPjrGYRhYOAvhvVDSOTCf5Gr
3mA0xSckJsGwCHU4Ilc9JSw096e2/OcFB1NB+GmXHHsvheFQAIUwE9zQGgxivAX7NBAOvvv99cM/
O+KcWDm+cFxB/tgxebk5Dnv26CzbqMyRIzLS06zDLbw5NWVYclJiQrzJaNDHxeq0mhi1SqmQy6QS
jmUIZJFAQklVT6LMloxHoerRYjgpPBxg03WfWwIQF5Yp+bxCw84Lp5wXTh0IXxIAQ6DMWjJZUNwD
ZScDoA8QQwCEWoh+JtYkFip1L7WWNgYSS9y1tVhislXHB8o+s4tNobp7VMoSa4lHOToLepQqFFUo
YV5fDym7mFCBKSsd38OAPGZ0ViDOFmDSS4V7acC5uRYF62TUhCn671MOBo9sGZwEWKxf0ockEpCW
BGS0Xr4x4HQFYDPfk3Wke8tBHSyutandVrdrIVrOhW3sATa9tKFSsGOpcNc28AEOlVNKxhi+tIHv
tgrmKG2oRbZOxlIR4zFaUVK1yXIkORCHz9JArC0wBXNMWfVeMttdmtDIC8Hu7k18YM+lVYNTLQJX
V1cnYIO7S62oEJWVLi3GriTYR2eF+iQawF27VKhzqUtoZ+lSvnuzh7Z1C20DzVragAPj+t9ydXeX
uq2lbpe7OKS9JOCspA+onF9FO4imm1wtRokZMIWjKbWTqy0hY5fPrioRGmZ1TU4ODftATK0YgxGl
/Ym80IJpqCDA1/EBmF1lxazjBPKMg+66cXTyWKoJlqr4vlRAkq6z8t1fQYDUWns/Do9xiTHSdN1X
IIhl1rLa7u4yK1/WXdvtOhjsWmzlddbunvLybl9pLdZaUYWlDgbv35wcKNtSHdDVNpDxaHthBpTN
ripKtsRW9wcr+oOAUwonlop2B62A/6aJD7QyVFZZeDTU3KrqZLRTlSBXohx6ChMJJ+44HGPRbIKN
POMGzFMiihaLMDs3H3TCYgwEui6tCoV5WJy8D5x2G45HrZBypD/FOFdI6epPGShea8Va7qGLkjEg
zxj4p9WZ9KUN4wPE9CPJnlB6QF9SxSYz1SGJSWYFSWlDT58YiLehPNLWjYPwgjWgswUkVUeSJ1bz
ulhcAYTRm2Mtv3R+FV/aPTALQjFiT4V5gFPd6mroFl1JmPQ4PQgOkLNkqtUOE1ENL0SUBZzWYjtN
cb8FAfYtTMBFo7jHSq65tMdJrpkzv+qQDt8Br6ms2scQpqS2uLonDdOqDvG4DNNYZiBWCPFCCMqF
qbqPkdOk5ENOgC6aytEIGq47SIDGyfvjCNQdZEJxOhqHGA3O+MoPTg4z/xNv32vE+QrxvUz4lxwv
MTjs972k0OX7niMoHnhWpct/5ok4M8rOhU+pdflPYuBxvB/D+4lfxpl/uzPOfPtO3rwb710708w7
8N65Ldl8enuc+bbtJvPN20eZb9qebv4V3s9vJ9uxiHaveS9z47Y48w14b8OIX24bTiswbsPadL18
r7O3opdzvkUqTvhOCC1yJpzAqp0PKDT5lYdrD/sOs9r7ifOgIjZfSMw8oFDlv/9esvldvHWfkONv
xJntbxS9wfzj9WQzHNMd4485jtUe8x2TCrm1x5S6/IpHax/1Pcr+ZX8irbh7P6q37yvaxwTujjP7
7iYvPhRnPor381c5zI/g88hDcvPDDxnMD6L8UGey+botieatmxPNWzbbzJs7bebuNeXma68qN/96
Q5z5Grw34b1xQ7l5/Qab+eoN480bOq1m+4bODddvYJ/fQG5ZF2veg/e6rnLz2s5yc1dngvmqzmxz
55oxtDm/X6PR5We6J7jL3dXuWvdyt1SntZhNxlFmmdRiTkwYZeZYi1kfN8qcNVo7yqYZmanNGKFJ
S9cOt2p4izbVrEkelhKDZ5wYPOrExOkNMVpdrFodo1ErlCq1VCZXs5xEjScmtU7bpWWc0i4p42S7
WEYLRTALOoHT4qtPEXhRfBiehyDIkyfIzdrxcjNbKDfDOLm5Io8E4sqhvLI4oCf4nFMcyLOVH5TD
7ECurTygqFhQ1UPIddUYG2CuwUlZGeCuwXlYiXvN/AVVB0mikLyBbj0oHSRdG7ZuTR6QqqttKQF3
+ZyqgC+lOpArCL9IqQYbos3f1tZmGwI9CqF29+zinlOcsDG5Aqesk3s+PEU3qcCH1skk4Eb3ndwW
WFPaEFhjndxf0N8eUV8bXpSogKIQbGsDMdEfsUSofQBSg/D/5SRHhR+bhjjs2FYTigm+Hc597uBX
F+poKIef/itqyFEm87yY+p9aL7mRdJGVpI7eK4iXuPCaRoaR7WQduYI0k0VkDtwMp0gy0RM5IZii
IAS+IhYhDOfIgyQWXiPVpBh1OUSlvfAyfMG8DbejvB7+iDPzGLwD3xANSad/u3Y5nn1HQj1Mh1JS
RCpIA1mLWhNIDuZ6GMuehM+wLg1q1BOelJCd5FacbUeZHcy7zBlyLTOTOcs+RWJJGnwM3zKLmTjy
O/Il7ET9WcQJ98OTcIwNQALcAfeyueytsA12wUvs/TADGGFbkgm//JbFh+GAlOFAuO3PHn+WUo7D
EmuJTUcimOvbLgmcFZ7QJbyaMFCBBUtwhgil5x4CJviWM1+hK1iJHso+D0SF5rGRiWQmms1LOrET
Wpw6+Koje9GumKVgJCzbibsII/ubBOzncu01RQ5irxGEvJpN547kkBqbgliSiUVvYUv6jvfd/0RJ
X9NF5EbJ0bNvcGnf2tHiDLGzT3BvSQ20DRc5RxAeGyARiOVjdAUygaQylmFYgBe0jFaBGxT3gtTe
m2ev6YWiPHtcYWGOgwgeQFir3oo399aj78zowVtqOLefmSnc2Oi24NuSDZJPIRasMMM5XM55EzsT
fcM5487x2unaVVpWK0vdOVZaKm2XstLEuG4QFkQFtgMgPblbgaH9ipgChd3WG5uHBEU1vfgvx1FD
DIxMyln5tLFj4gry0/J4jozJsA6XyqSM0WDKy80vyI+TbKitWdr3/r19Z/s+vHzRImI9jMaN6Vsz
t3LW5tys0ZXz560fPcrOyZ7rW3H9nj29Z18hV/7qxju/6utr9123vq3vU+9y764VXoJLJ1yLHnyb
5BhoYYPzcjXLcjEazRaWM6CkK1RyiVw118it5CRc8QqWsLpY3XgtMROd1k54rVO7iFRovaRW20l8
WrXEid3TSgiRqFlgedbBOlmOldwulaqlGnYXEQYVLdwrjGp8nt1ut9XYZLqa92psm7JtV+keJZt0
R3IyiR7HtwC7eTEpsBALt+y71Imk8N6+J8aVbrWPmRFHZvS9R3IJx+q/iDPEzyo6a8deoFUlHskn
kAI3OaezOolRkmTSGY36pAydPSEteaI0XzfWODa5XFpsLE6uSlgW0ylZFdOZ0Jm4Kim+yDTL5DV1
yjtNEq1WtUMvY4TpwgzbQYbhEdaZggE+haRonCpdgYbXOrDbrHZYipZl5NeahGMGjqPJZCZ2OpBx
8YU4X232GpvQXVuRMLFwVDMJjiV2aWxoLK16HNlczohjrSEyC/fkWW/hrSTNs/uX/iUNry7mp08n
ozacJnDkaP3hUubXXy99bvaavy28bM4UJylPLdoXuK/v1B8u7crCng8PviVZJ/kMLXC7szlGwgzn
RqZIDMOTcm2StOG2vHwyXjI+cczwwtGTwKmYljjVPG10haLKXKtYZnbl+Ilf7lNcqVttXpWbmptj
3FVrIiaLJWWHiU2XOWREJlPtYBM13WONvNB73okDktRtMeaM5aQ2YUJr0Dg2W6FcSMU3aHtenk2w
Ahqhl1rBjhNbsEBRXCE+0MUE76pJ1xDr8LQR+vhUgvMZTTIiGxcGfUgWzDOCmseE6UaDFC2kJVTi
yurO7rq37735ZSMWvNNyy73WEaO6KmYXzn1277UdDe/NTy+tJorOrqemzphTNDZvfRHbfIPPN2Va
STaZTCZd0uGzT4zVq4i8esHUycWjCZmUah8xInPNogWbs0eP12jiultWPy2sYsOD30macBVTQgzs
2q9Wq2IOBm/dr9UV4POTAwpNQYxUKpMdxMVtukKLi4nErCTKeELkCsJslak4llVrCtXFwGaw+WwZ
exnrZVezMlaj1YxX6tAtGJbVSqQOVCRVkJidEgkrk7JgRxPZ0Ty5NgedSWg9wTdsglMcOXIO7xp0
m9i4Qtsm3XGbTY7LoZVFT9ETC5uHLBn9dEXftopz9klsF9n0t6fPPb7q3Jvksr4/kAUkia397iZG
d+4znC8OXLeOYe/Scb5cpkiS8AlJRr5QXaqYpq5QLNRW827ikdcqlmob+DZhbmiv5PV0/UxMStpq
NBmMRlO9yW9iTKZFxkXxXqM3vtPYGS81aq7VWldZGavVKI0XZoYZi8THj+ifGUZj7K6UxB0prEka
mlR0XgjTQljpscv9M6cQ3UeYO/aa0KKQA7aadFwPhfmS1z9fQi5kYS2y/NyBecLN9PSd3nF/35lZ
M0a5jjT97rG9f5x+a0nWXzlr8bmycZosc+uTl1yysMM3ZerYdDKtqGjlVYsWDTOwU/ve/YKMsttv
9u14B0d/PfpTs6QXN6ZsuN85/yLZTNkC2VUyXBzYZL3cKs9UZqZmZucbHabxCSVGp2laQoVxfsJ8
S016c0LtsNrU5lHtKp+hbdiVqQnAxIN1d5JOZ9iZJFWyoJZl7YZEvjslIz6F1QpGisUJpNU6Mrul
ztj4Ap+USMV9QSqsjXRnwOVE8KEidCk0lL03rrCksuoQZGA+NVr4YOipPBh8ap9K8EVbtbCH1EiG
C04lbiFoIRZDgtUuRguajDpgQ0bUkNCewtx55dPTplVcvWoFcR+reDItLyN+c9Udp4tm9ix64mTf
1ZrV7Xm1ZlXswmbPNn58UdHjW94my7s37UpW9B1nYjL/1DNizPP3953u28lMaFhkVIxalbNl437h
U8sFeHokONuk4HOWKlkjSScLmCWkgW0nMpYAuY5uxFa0O7tTIrXh7u/gnBzD4V7HpDN5TAkjYYRd
hcPMHB7wqYHuU8QVSKVyhi64NWgYW429BnCROZeLSy06TO+mI6QGjwrCSUHy8Hez+mayL56TOLnr
uf1nZ3IPET3Wty74rmQZrpvCON/lnG9ickkx8RFOZbSxaQlp6UXaCbpZ2nLdImaRtjK2csQcW4tp
WYLbskqyStOpvVK3yuRPMAETm5S522DdbeCAlSbJlErNTmliRnd8fGwWq+C7O9EEwjir0dkBHAph
lAdt/XTG1/TGhsYYh7eILpyhMXZqs5w4srECcfnqQWMrnhBwhMUVtEBYTzPG6sBCfUFCx1Y8LFxM
JMvWd6zu+9OJeY8Oz8tIWFcb+GzCghu8T71LNhFTx9Pl5Zf0bRDGdXX76Np0tY49+Xpf18bu7ckK
YsWh3Xd7lv3FA8RAXIXOSU9uxWHd3LAoTp3TKIwunlZld+HoquHr/XaW4CR8Yb8GT1rCtpmPBy1g
ZZIYVSwbL0lR2bkMhV05SuVgx6umq6q4apVb2aRarViu7FQZgOFYdBCZGq31nVNYbWCtipHJgehI
BsknZeRyPDGuFo7YGoUE58ADzhzMJF0nk8tiCuXFGbJ8WZnsMlm7TCKL0cSMl90bg0OMc0fJKjgV
cKxMwcqAmteOt2DdWKdkiaRTwkpa0bRMF7VvTTWmOKqJ7mRo7dVtOmc7coQIq/EmXINtR0gcjlVO
yVzMhPu7DXd1XH5VdKIRi3ReX9fbffV936z/sO9GUkUO7SXfksfY5879gtnxnUJy9JyR+UjYX0px
BX4FT6gmyIAbnA3TNDPT52grh9WkL+Oa0lczq1WrNG2GValqY3wGywAhGxmTgWFMIwpNxWaGZDBj
mVKmhmnH3o0YOWL8C3hoZ3SMl1nDdGEUM1I7kvBXK9VJakZ9eIQJkm6O0zHWmxQmXETsuI44iO7r
mt4aoU9XCL1sfU88fUmEfeZIDgiOgxNKFppTuIDQJSNez4YWkP4Vo0DySt/2vpuSx8xyjL7sor2P
1M+v+uzqhddM9d6ScnnavG6HLffy2pzmHKnhzMftlrEmg+HlR/aQxKbG1ekjyIlz0zTxM4onHJjr
WZiVKsykkXgKXcjVQxxc7UzMV5Wp5qlWAudXE5laJZdvVCgNCoUyTnClXFzl4uIMWoPdwOgLlcUZ
irGKUsU8hV8hUegN+vGKQ3pccxjgOnEZ4fBAp1XgwOOxswbH9h7OqVAX2KrzcMfpH2TBFP0moP1H
B7OG+sriwIZWzHhOzSdU2aasL7ur7ybCkaUZS56u19vjWLVcbow/p+Pq/lB+ORP6qY1ZvFzCX4Ud
8jpDFpLXmHXMaXYtN5Jr59ol8f/mte+nXNKJP3LdEr2iV/SKXtErev3/vHC/LWMvGfgOQC70f5GC
gAxDIZkBFXSKMgv50CzKHOhhhShL8BS7WZSleA7ZK8oyPOX261GABu4V5RgyAx4RZQ2MYrTCtzk4
FutKZaaJMgfZTCGVJRifxKwQZQ7z11NZivEG5hZR5iCN2UZlGcabmMdEmYMM5l4qy6me06LMgYN5
ncrC75F1sypRJqBhvaKMejiFKLPQxL4vyqiTPSPKEkjgLKIshTTuUlGWwfIBPQoYxrWLcgyzndsm
yhqolGVSWSn0XbZVlLHvsquorML4NNlhUeZgjOwOKquFvsg+FWW0iexNKmuEeHmiKGO8PNR+nfDZ
jLxElDnIledRWXibM8nbRRn7JfdQGd8qYJh8lyhzkCXfTGWj0B75E6KM7ZEfoLJJaL/8rChj++Uf
UTlRqFeRKcpYryLUtmShnYoFooztVJRTOUUYU8UGUcYxVYTaJnzUnaC4XZQ5GKnYQeU0oZ2Ko6KM
7VT8hcqjhX4pzoky9kvRK8jyQXaWD7KzfFD75YParx6UXz0ov3qQ/dWi/W/ncx05Dn5mY12rt827
xM+XeFt93laXv9Hbks1PamriZzfWN/jb+NmeNk/rco87e56n1e1qcfGNbbyL97e63J5mV+sy3ruE
9zd4Bimqb/W2+4ToOm+zz9XS6GnLHkgc36+k2Nvk5qf5XU2NdUJcG9bKj8125PEjB/JminlHC3lD
WWe6/FjXCr7E1er3tFZ72/lmVwff3ubBJmCzlnhb/Lyrjfd5Wpsb/X6Pm1/cQRtXOnfGJExtpQFf
q9fdXufnG1v4FQ2NdQ2DyuKzsaWuqd2NRf1e3t3Y5mvCClwtbizViBnqMJenxZ/N99ftbWnq4Ec2
ZvKe5sVCoe9VtfRnjtgimt3d2FLPt3ra/K2NdYLdB9WOxQd0TaANGNmItfg9zcIgtTZirW7vipYm
r2twpdhmV6ilnlYeu+vFqpDb/b52P+/2LG+s8wh5GjxNvvM61OD3+8bb7StWrMhu7h+AbBxAu7/D
561vdfkaOuxCFW12mAceaAU3vvS04M3DJRiuxxgP+Gm4Dtox1AaNsBzD5+f2QzuJQfkUystozlXQ
GzHnEgy7B3KF9J2fp4zW6kepfMhcOeDAjYBnr2EfZB9lH0buwdAe9jB7J7ufPYSh27F8LuYScvIw
E3XUYXkvavNiKwTtJSi1go+yC2MaUWqBbEyZBE148TAb4+qhAdPaaMiDT6EVy2kvsn/Q8kaaL2QR
Qacb05vx2Yr95Wm9QkoDxkZuUT0Nt2Ob+nPX4bMZw0INjbT+7Aglx/+gJcWY0kQtPY2OYBMt05+v
TewrD2NRnwPyUBoZQW/meXpHD+gdrHUmtV6oXyuoXYUe+2nJatofnlqhA5/t1IIhK4SstYS2xE/t
JoR9tFwzpvqpDqEPi2nZfsuVwlyYgWMUKts6KMVHW+/GWuqoxkbaxxW0rjrkyPWGwkLeOuxROx01
N83rRXbTdB+mhHogWMIt1tUoaqgTdXkoCzPo/H4L6U1UGomlMvEpzIzFAzVFalXLDzT/+zb6Xrub
aqrHuFY6f/y03XUD8z1y30O1/7BdEwZZQOhJqC9+Wl+/Jwn6Q311Y8wK2nMv9YbIPQ3Z2RVmUw8d
V6/IoV6F5HYM+SjztLXLaW88A3qEnE3Ug35shBqo5XzoEXa8VtArm1o03AOyRQ+0o9xBe1hP++hD
DR0Y29+LNhh6DW0U19CSH11DZ2B8A0rLUaNQov289U+IPb/MFNqWtjAvvwLLeCKsqacwdRl8jZpO
UUu6yaUY4x9SZ5u4CnsHVsr+dpxfYh7NObh/HrTL+bmm0vYtpzvAj6/tPFSIdm7HORyapa5Be0YH
jtUP7TfY2l7RIm+LK9QP2syZuYu5CVwJl8+N45zcRVw5V4ixSRjj5CZhXO4P9FeKe9zb/+seV/Zv
9LBcsAbJEbyMOAbGblmEfILX+jDFS2e0l7jonG+JMA4z6NrXSL3fj60LxdN3Jgh+gXc7vDTEF2VY
+q1tHZBgMPStdvrbAk0gftudvQ+ZG/RuJvwG7jG4AZMml78Fy+LZfkblVB5Ms2fN5IVvtNPvfIfx
QLlxuJFGLpc6qAQZeBJgmrx1TaChbKB6iKhN+Ka5RgzpxGcGxuJ7B3st281uZrcIP0iAM/AtJpkJ
T0NyIOxWqsUvahP1xS+Bgd/eFH+5Y138fKli1MapG7+JITJmz7r4coyawhCSo3IopBKbhmWSJOBw
SZU2KeHIugKGcHvmOC51ZA2KGfa71K5hMJFes3A+t9Ed1EPXoouFy2EZpIwzMIs/uYK8s8XyxRTN
Cab05OOvGnq37VkXl+NYx9U61rEz9rDCd2yU2XfEvlERXPjrp4/0l07BpvhybI5MKTuXU+mHl3h9
Ha3CcZ8fWZfJ5xQWFpz3YpCdk+oYFspsjPjKkGNxmIV0Vp/wffpsr9fPT2r3N3hbG/0djtT4GEeB
Y1wuIi/HkTs/PiYnF4NjMRIx39FBbYVKpHpm7pwcvSNWCMj1ystcbQ14VPZjNTqHRoiU6WWzPe5m
b4u7v2HKoRpmdVhCDUsanO728HMa61uEA3hFySTHOjLcETMwgIRIgF1HtIDxSmYdIXCg46pXavaX
Fv5xzJ05/ziTPnbaiiNnzb95ovSKT4+WffDylkeWzZi9+MsdzCMzX53WZE+72PPwc9YDqqkHOtuP
lz74p+s1FY+l2z7f888Yq/nopLRvF+94PrH0DzdMN+94dr99+CPTR6/2vmZMnbClUFd4/MHML5dM
GE1yg30jpt56bxPZtPvs/fvqOtedWbhn7foN1wU+P3jj3ufH3VqxIX7EpkuOO76Gi758/MxFax/a
2NtUeFv2mK/vyb5bedXibSuX7N7eFrPx7s8f/YI/NCtua93TWa/lliZ+cnj6TRMq5iQ8t+TSjj/9
edOT8y7+7bqKa1okPWP/cmXag7OXXLTjkmdsa/Ja1k+RHv3NC9M3Mi0b4fdHNr05hxF+grt37beO
td849GjOlHRO7VBK5Th1JRIZyzrW/k6IJdzanY61N3f9T/VmHg712sbx2WzHLkr23YzIb2wzgyxj
yZItS6WExMm+Dy9jG3u2sidJVCprCJGIiGyRvchS59jXCIV3Rps6neuc63rf93S9f811P8vv9zzz
3Pfn+T73c/0YTj5zmbd1y+A38Gcu1ondbrnm9s/7G4Ee9AgUJS8fwdipsGo180oJoCeNcQ8YvA0j
A6DEH4CTVEAH2wtjbuVsx4FcThYuDj7WTTNQPZitarUAUJOq6WGkb0XCdoUOlOQRvrkF/lpCS+0P
dD2yjgt7iHiWhG3mHkn0BulMPp1mfWnbQJeFX4aoND4Nb10zbK27Wm3ivGClelsVNJfclNbDUUF9
dT9tYt8gVz7Cb372pnte3DAm9lCq3QO0Y1dEIf/mq8leW6qLEdVbo6AqqeV3+HUGpoNk04jkBKw9
3LUcHTdCQdtsdq6tOlDZ3uZWVXlVrNTTJSgD3melawT7yndrdDRva/VVD22JS2/8uF4ZOgsv1n3o
hRT1GRTkapAdf+TqKau4ItMqTJ9FtHEIm+SKXGomgSbLPKpEtPzajZbcQZ6yGmB/KA8zrciDo2+V
R04D4/Fw2/BHLmPLObntgVg3HB2RMT5Expz5xBhLcIfCDgvpd8cRGZEzPzGqScDBEBmDkpCQAiQw
JOAgAckvJhAU/D8ZG+2O4xBdF6ajp3/0c3PonzT/S/ZUA5Hv1dxuGdpnROqB+GsfdnMeuntCCb3s
fpEg9FsyE8hwgINAJ9/OWVX9DhuT0v0Bzfb6/vr4zHNLaE3m815PnVPqt2dPL3SN2Z5kc58q4YiB
tSFUM8+eEOdKNXN6ksuKIVg/znmQ6xmxfyo8hVmoJEAId70bjQkZLxHqYV0/MNnVvNfUiHcpJSY8
DLH1VlP0t6g1mKJfW1tyfBitK3Ts2RYNVnq7r0JxKFbtF7/VPu38kws4N04vfr9I6cccZsX6UO3D
jhQ5xhGp5IE3g/KNdPuDejdqsLXIh8a0l3oMNZmA6Tc3IvCnH/uYModTlqJsM6clBKIpp9e7mStH
PrRNXWf5xJ41IGjlx+z5GsVobzL3JnaJy+bxYcaFkZWNl+56xO4sHyc9KeqJgUwRuMMNTn4YK7A3
8Mdhr0pqwA07BMgBmExUpnSY5KfsiJWbw3fZERd7W1Kp+Keckru4iiHR8Q4SiwCNzyMEg2HygCyA
/mwDkDDRP0237DzQ2m3Xkzy+C6gd+sChwbl7aBe3GJ2xuH6V3IpG7IaAtVSBZ5ErEJtcFrzh9nqr
DfW7rEuqAQ9dpWtp89ue1+cn4C7uPbOjdb5ziyZSpoGEaYY+N+gUk+7MEG20r6oejaXnplM6xVD7
AVNWWkyRxebgNuwOJLt/Iza7qvqRnZEc0vy1qFPLoo4IxxIXzjessDG8967IbF4rXe3rqwETHRMh
bkYEVieRpoykUjauR84JL87cfKRtn988eyh+vFg818cL86sdyJdwBcowbJWkKYQdTuJ7FE79jDnb
/KW7hJsM13YTokHgqJ6NRjMn5+0GIYytvm7OTB25w0E39kXeQUcBjcAgFiX81VYPtJYekT5XiPQJ
/UgfBjvqS3q1IMFcxhdq3Md9fs36nkE/R+vIEOEjAyABKSkUCT0YovkTtI6RraO1u4elo8vf1Tov
UU7vC5uwWq6sTe0aCoa1G7nMlaISVUx6R5uCZxUkBzSR8fCyi2dHuPVDKuu0OwPI1uY9H0Y9udVT
YOti4y1sM1FWPh96v23uzibTdeoTfAjxDqUBExg77p7jWUctoxdDi8M1V4OfBL4KOAJBJa7UZlCa
cJ073DZQizsl7lcmCCs1OWnHYbUdiJef64EJ6mC8PCjM6k71h6FEPZvpprgwVHjc1hUHJ5+RGYW4
lAxXOnMRPdYzFhIZXcG6B/hOnVOLGhYPYdAvXr/HFuMwJ3h5z1oLQ18o3VsCzl2mMcknq9WCfIas
KEyyfC3xZIhyyPHQRKciblGNVud0lRG7iQChWPuPvCGA4cR/ROBHxKH8/1A7DORUn04WLOCdz113
gdJ5Qlcx5b5UrnZY3IP0qTw5ZZXGZ8D+Lx2YITAarl9AhjunahWQ8rdK6A8y6geAStRhRNbh9asY
Y69ZUoDpol3UYubdjaoVqcjEtisMDEM5ZjEXy7NNqIejy+TYO9/n5TSX3zXgZXemtPW3h2bxqc86
lDri+SrUn4csx9A/pDgv82jaf9LFTO1qfFdr+1Bs7WiNSBt+prlAoif8fovVY5lOVt4a3LBcWgm7
ewZvRH9pKZNR9Nv0OmutNLhQusV5erkne6y9Nao68oNl9YrOHB8GJicxnOORS4OYoPU9vNFnA63I
YclLaRAVcV/1iMptyID1utbwINQjoYTMiab1yku4JV5jcV86Iy8awhGeR96QLFHxRqnR8FD17cjh
CRtUzFu+5PTWIi8jA9leN9Vi/lUioO4QARX/WR6RJ4p9vFf8efLoDyAgMQpNVEPSRDRJIHcYJfnR
RJJMIKjkn5BHwoDgR5PLScXWhXRfoWqoxqNmqCuLUkZLiMmg0cpiGHWMBFIQ4P84J45v5yRmSJoU
j6G1G+l+4y/xlhT0Cw+W1cBnIGn28ubL8M73dHF7pu6g4Ey4LR39XFyKSMLhkdsmtpA3if46oS8C
XOc9QS+qVBzeO+e5LhzoxMe3J+67cq2hcv2d/5DlqBjAlS4khlP8TT05tqA/EtXfOr/ccbL+w7mR
pbNxlyfqmdazH4Z86I1qJztUDcbpC0PXQsr3hsVYPDRDiMp33NhMNZXm1Ntbi+7nslQ8JFNiwszi
lSTHsAEqShgzQ+UKV1mJajAHGY87TN0+kBQTQeefDbrhJUCRKuICrRARuJA23JDFp11z5AS5l5Gb
SpHC2aGEEMrjZVuT4ZpUMiUla5K3/Y9k/StA4gSCLuPeyoh8huKMutxuOfUVCPCkiBqI3PRgYqWf
Ov1Gy1v/K9ud3yilHxLjP1FKHu4uVpb/FaX0+UkeP4b1N/qPvPZHtALN5X0Y64qweYoYN73fBiL4
7zvVIHCCqerWO/u+8K2Ylns4bna+1XejT0vvK4PZUPkaqGSXjVbJHHh0BXWZxx54eYnnqAjVWJTe
q1TFlHIppqAphiHOl5VnO3T15Y6c39w/JFjQkxw+pf34zcK68j4z8PSxCD+czxvnrXCevIT06LQa
c7ZMFkBgJMvf8iInAlGveUFWJThybrgneEhPVFrud2Vl8B0QDfVSryZ7OzbGt2hZLMYMMfowJuAi
C67U4j2z8B1nJiss/LjsebkopdflDa3xxzjUTezjWuJ1TMhAT9cAJTXdV/sjqlcYFobYXsG5Sg2W
vEaExquogphecsk+U0MSYJeJxEqBgMFAUPhPPLJ9c5D8murKDGok7U6flo0KiqTZnUcjvverRY2k
A3bXshCp8aUjDEl0dVxPXKmc/rknDjdVf33e/MafS4l+CrDZ1YUGeRwwyRQNFPn7V4HXhAIF/sYV
Ks93ZIIRwKBoa5SY3VpME1plFXFiAe/toKDijfCjHNcsUdC4d/qGGFhRmyiTeu9AHw3W07p96Iga
qMTbe7quURdozDnBsQyZF0pFt42TlxkF5TN6W+3UFILRUWWNGvW4dgSjo2XfijxNQOZlqmbW7k6d
vHW9ZIReIe1xKgZ3O8SZpuuOdCj7wx7WkcXYw/JKLFSOVQ8LDYflc1ye31zt4N6oFDhZJ2xOnyfC
rbUqIgQvB7nmnkaVVHcVS771LDiwYtzX/7R0qLEGxvVmUt+xtS0XajF9a7gvY7ngplktJ1OOY35x
bayxfeI1kWnVKekiscjQBx2rderLKMXoXv7NuQ6qfsn8CsrFawQIN0CAsH9dJXIkAUJDLKL8x93x
+y3ym42b4pM7ZpoBrLt9kfpr4hdMfOeXGjIkPXFHBQA0cXtFSkhKS5n+wRU1i+lb7irl1AtbGf0+
eMmi8BZXVsp3fCK5yGlZOtGotnNkdvFSxbwOgcnXD7wD0m8HQJwKb13rylEb0qoNOTY8o3u42zdB
ujjD+bfI1LwFstEcPGadsWbSBgjtVjra0fiAbM2c0wpODvFbgdF2yXAXmy7WkUGwbCsgs/O86gX0
DdbMF1TUNbey/2WcFDb0JGE9dmIgoPmm/0jocwbuZbX9Ycqx4LFj0JbB2DEpETQNdvNE+UuHM85H
+PbJSJzNmw98QOEkabUG70ZxiPZZeNerMHvLGwrjKfJtUU3BgpdzUuEyjsa6iQIJ9fW2LAMrV7Su
akHY/I+VCrmmUQg/vaUgRHjX3CyTGRDyYg+zeIC/Pm/dZIWF+dKoluIdFAj0byTTDi4NCmVuZHN0
cmVhbQ0KZW5kb2JqDQoxMjYgMCBvYmoNClsgMzUyIDAgMCAwIDAgMCAwIDAgMCAwIDAgMCAzNjQg
NDU0IDM2NCAwIDAgMCAwIDAgMCAwIDAgMCAwIDAgMCAwIDAgMCAwIDAgMCA2ODQgMCA2OTggMCAw
IDAgNzc1IDAgNDIxIDAgMCA1NTcgODQzIDAgNzg3IDYwMyAwIDY5NSA2ODQgNjE2IDAgMCA5ODkg
MCAwIDAgMCAwIDAgMCAwIDAgNjAxIDYyMyA1MjEgNjIzIDU5NiAzNTIgNjIzIDYzMyAyNzQgMCA1
OTIgMjc0IDk3MyA2MzMgNjA3IDYyMyA2MjMgNDI3IDUyMSAzOTQgNjMzIDU5MiA4MTggMCA1OTJd
IA0KZW5kb2JqDQoxMjcgMCBvYmoNCjw8L0ZpbHRlci9GbGF0ZURlY29kZS9MZW5ndGggMTgxMDMv
TGVuZ3RoMSA2MDExMj4+DQpzdHJlYW0NCnic7H15fFTV2f9zt5m7zNw7y53MZCbJzGSykUkyISuB
QAZIIBgwQAgkQCABAoGCRIKIaCvtK4K4gEtRW23V+tZqWw0BERQriiJaN7SbG+7UDbSVWgtk5n3O
mWwU+mk/vx/0H+83me+ce865d+557vN9znPuTDLAAEASEg+t1Q2TJra7K+0Ar80AcF8xsbpmAmRx
ewFe7cBeaROn1jeYy9VK3N6E2yMmNjSO+zDj4yzc3ofbt0ye0VCrbDRlAMirAbjH6hsiRaumX/4C
APMxtrfOrJ7StPovV6wAUAsBhHcXrmjr/PD6sdi08S3s88DCNasDk+8ZywJsieL2bYs7l6y496UV
0wCuwddjH13S1tUJbpDw9ZpwJ9uS5Zct/vjC1NcBtv4JIL+sY9GKtS3vb1wPoNsAul7oaG9b9Prc
Zhwcsxz7l3VghZYtXojb9+J2RseK1Wufez/pRTx2LYCY+532VRdpt2q5AM/gMbjFy1cubItlW5oB
foPHM3euaFvbacrl2nD/g7h/4KK2Fe0/2n7pToCDOD5pSufKrtXxeliL5zeCtHeuau8UO7/AsVxX
ja9xCoitBcH//sw70udrlX8DnwgED3yvehh5Pnjj0/tOXt17s3KzSOwtAQsJ4H6iEpsOYMnD9ouV
m+mRhmIeqeEegZK+fViwQQRmYkHG16U1vJ3ZCgKIwo+EYjxkZuKZuwvWsveJwComnhN4nuXvBlM8
CoE5xMJkxykNgQBgBfzalBZrhudFhXkwAMxPSRvfIhwiIwVG7Dsl9pXEg8tiQtyv4BfwH4D9BG7m
7oHb8bn3P+n/n0BYC176vA26htabShLb3Dy4pr+OXw0HTb+Bg7R9MnTxryXKwlY4iMe5mj82uL/5
E5j7n7w+/xJ08KdgDx+Gpfi8nH8alqFdqklZsMEetggeov32wpNYfsx8EPaQev5NWEb3w37cMrr/
RVw2jMG27dh3tOk6clXpfqP/f+xjwIABAwYM/PfBPcIwKSmF6kAFo/1zRoMoogmICphM5meA1Qpq
UR5AwUC71aparSlWZSeoO+2KzWrNtdsV2Qby+R+AAQPfVjDAEIAFvhHjIIIYj+FaRUaWKSugIFvA
gmwFa7wXJawia6Ah2yjbwY7sAEf8FDjBiayDC9lFOQmSkN3gjp8ED3iQk8GL7AUfso9yCqTET0Aq
pCKnQRqyHwLIAcpBCMb/AemQjhyCEHIGZCJnQhZyFvI3kA3ZyDmQgzwMhiHnQhg5jPx3yIM85HzI
Ry6AAuQIFCIXwvD41zCcchEUIRdDMXIJlCCXQln8b1BGuRzKkUfACOQKqEAeCaPix2EUVCJXwmjk
0ZTHwBjkKqiKf4UrrbHIYymPg3HI42E8cjVUx/8KNTABeQJMRJ5IuRZqkSfBpPhf4AK4ALkOJiNP
hinIUyhfCBfGv4R6qEeeCtOQp8F05OnIX0ADNCDPgBnIjdCIPBNmIc+CpvgxaKLcDM3Is2E28hyY
izwXWuKfQwvleTAPeT7MR26FVuQ2WBD/DBZQXggLkRfBIuR2aEdeDEvin8IS6EDuoLwUliIvg2XI
34HvxD+B5bACeQXli+Ai5JWwErkTOuMfw8WwCnkV5S7oQl4Nq5EvgUvif4Y1sAb5UliLvJbyZXAZ
8jpYFz8Cl8PlyFfAd5G/S/l78D3kK+HK+EewHtYjfx9+gPwD+B/k/6F8FVwV/xA2wAbkq+Fq5I2w
CXkT5WvgmvgHsBk2I18L1yJfB9cjXw83IN+A/D5sgS3IW2Er8o1wI/JNcDPyzcjvwS1wC/IP4YfI
22Ab8q1wG/JtcHv8Xbid8o/gx8g/pnwH3IF8J/wk/g78hPJP4S7kuyjfDXcj3wM/ix+Gn8G9yPdS
/l/4OfLPKd8H98XfxhX6/cj3U34Afon8S8q/gl/F34Jfw4PID8JDyA9BN3I35e2wPf4m9EAP8g7Y
ibwTHkZ+GHYh70J+Ax6BR5B3wx7kPfAo8qPwGPJjyK/DXtiL/Dg8jvwbeAL5CdiHvA+ejP8JnqT8
FDyFvB+eRn4ankF+BvmPcAAOID8LzyIfhIPIz8HzyM/Db+N/gN/CC8gvUH4RXkR+CV5Gfhleif8e
XqF8CA4hvwqvIr8GryH/Dn4fxwflP8Afkf9I+U/wJ+TX4Y34a/AGvIn8JryF/Bblt+Ft5MNwOP4q
vAPvIr9L+T14H/l9yh/AB/FD8CF8hPwRHEE+An9G/jPlj+Hj+CvwCXyC/Cl8hvwZ5c/hc+SjcDT+
MhyDY8hfwJfIX8JfkP8Cf0X+K/JL8BV8hXwcjiP/Db5G/hr+jvx35BfhG/gG+R/wD+QTcBL5JJyK
vwCnoBe5F2LIMcpxiCMDxlHg9kqSBBwnCANRnxO4M6cCDP6UsZtJAskMZrOZ3Ljqh4mAw18wcRIp
8/hjMoPp/M9SBgx8SyErMvA8P6hdXuDP7GX+Z+2KRLvKYLtZMJt5s5kDM6egrs2oXbOhXQMGziMU
RfkPtCvSOVYaol3xn7RrOl27AmrXLKHmDRgwcH5gsVpQu8LgBPnvtGuWQRYT2rUOtosmUeRFkWpX
RAhmQTQrhnYNGDhvsFqtIAhD1ruoujN7SUO0q1Dt4jL5NO0SvZ6mXRSzAuJ/YQQGDHw7oWoqatc0
OO+eVbsyfV9QIdpFRSoiyDJqVxtoFyWzJAqSxIHIWSWESTRJhnYNGDiP0DSNaHcwuf0X2iVrWwvV
rhUs0j9rV5JwIqbalThNkhPalaxD7kQbMGDg3MJmt5F3eAa1azKf5eaw0qdd8saQFawoZRknYvtA
uyyLsmySZQEkQZMRJsksG9o1YOA8wm63o3bNg8ktzphn9rLgD1nfYjdJJdq1WE7XriIpsklRBJAF
uyIrilkyK7JqfALPgIHzBofDcbp2zeJZbg5b6H0plWhX1kBVwGrBidgx0K6gdhWqXUVwKAhcACuK
NuRdJAMGDJxbOJ1O8iGpweQWZ8wze1mpdjWiXcUGGmrXihOxc6BdscgWxWyxmEAxOSwIUTZbsKeh
XQMGzhd0XUftiv9GuyqQP2uxUe3awWYBVUXt6gPtmEJbLGaL1QQWk9OK2pVk0Wqx0UzbgAED5wMu
l4tod3BhKspneWNHpfeUqXYtDrBbQVNxInYNtFutitVqtlLt6laEpKB27YZ2DRg4b0hKSgJRlP6N
djWqXTu592RxUu1qOBEnDbRbVUW1iqpqAqvJpVpVVVIk1eoY8ukNAwYMnFu43W6i3cGF6Vm1a6N/
6e0g2rU6waGCzYbadQ+0YwqtqqKqmUA1JWmqqsoWSVOdoJ55KAMGDJwTeDye07WLM+aZvWz0/SAn
1a4OThXsNpyIPQPtqmbVVFGj2nVrCNmK2tUN7RowcN7g8/lAlpXBhalsOcubsg56T9lF7htrbnDZ
wOlAMfsG2m121W6T7XYz2Mxeu81ut6iK3ZaU+MdwBgwYOA9ITU0l2h1cmCrWs7yxo9N7yklk/Wrz
gNsOuu7AfQfa7Q7NYZcdDgnsUooDYdEUh90z5NMbBgwYOLcIBAKgKNbBjyZbtLPcHE6i96WSiXYd
Pkh2QlKSTv6Naj+cul13KrougVPy605dV+1W3ekd8g6wAQMGzi2CwSBYLP9Ou256X8pLtZsCXh3c
btRucKBdd9ldusXlkkCXAi7d5ULtunTfkHeADRgwcG6RmZkJVqs2mNxa7Wd5YyeZ/lPwVLJ+dfkh
NQm8ySjmzIH2JLfTnWR1u2VIkjPcSW63zam5k9KGvItkwICBc4vc3FzQNPtgcqs5tTN7pdK1bZB8
gtkdgmAyLpNRzLkD7cneJG+y5vVZINkyzJfs9TqS7L7kdNS8AQMGzg8KCgrAZnMMfkTK7jrLDSY/
XdtmEO16syEjBQL+FID8gfaUVE+qz5aaagGfJT81JTVV9zhSfVlD7kQbMGDg3KKoqAgcDn3wYxYO
t+PMXukQQs4mn4JMyYXsNAil+wGGD7Sn+b3+NIc/oEGaNjyQ5ve7vHogbRik/RdGYMDAtxNlZWXg
dLoGk1s9+Sw3mDIhC0iOjBJPK4BwELIygwClA+2B9JT0gDM9XYOAVpoeTE93p7jSA3lD7kQbMGDg
3GLkyJGg6+7B5NbldZ3ZKwfIlwLmk09SBYZDQQhycjIAKgbaQxlpGSE9I1ODdG1EZigjIznNnZke
wfnagAED5wfjx48Hj8frH6jwpHnO7FUAEeQScscqcwSU5kCkAMU8bqA9JzeUm+PJzXVAjmNs7rDc
3NSQNzenHDVvwICB84O6ujrwetMGJ0hf+lluMBWjbnGOJl+DklsFo/KhpLgA4IKB9vxIdiTfG4m4
IM81KVIQiQSy0yJ5oyHvvzACAwa+nWhoaIDU1GDWQEVa1lluMFWgbgGiJAcumABji2BkRTHA9IH2
opJwyfDUklIPDPdMKy0qKQmFg6XDq4fczTJgwMC5xdy5cyEQyBh8qzaYGzyzVxXqFmAiZOMUfCHU
lkO0Che7cwbayysKK8oDFSM9UOZpHjmioiK7MGNkWR2Unf8BGDDwLcWiRYsgFMoe/NLljPyMM3tV
wwTkC8mnMUbMgPpKmFA9BmDhQHvlmJIxlaExVT4Y5WurGj1mTLgku2rUdBj1XxiBAQPfWrCQ+F51
HThSYrz4MAH0f9k6w7Kkz+nARm7IF5BptrN8oCOj740lXPRGCqGoGErLyoEm3wlU10yYWDvpgrrJ
cGH91GnTG2Y0zpzV1Dwb5p7b4eGZ/r/txsNWIH9wEQDyDU3pUABjYTwmH5NgCkyFGTALlsKlcBnc
Bb+Ox2nPvIEek6EelxSzoA2+098j/sG//FkYXwhn+W77f0bU1TijvKwoUpCfl5Xp150Ou9Ui8Gxe
oJvLrAnVhNo6NgdqOgKbQ9Wt1fl5ddObaqp9wWBzfl4Aq6sD3UxroKZ7wpoOz+Ya0qHbEe5mM2vI
Y1l39NpWLISqg8EgtjgHW3bH9103pCmwtDva1g3XBrbn7dt83W4bLGgNWxaFFrXNberm2vC1tgOe
TMeMJnJO5NHaEejmcW9KPqzpO0XS1tGKHKrGvc5aj9XS+KaNwX2+bgc+13Tbw90TscfEdR/6uM01
nqUBsrl588ZA913Tmoa2Bgk3Nzd7TjPDhNCE1s2bJ4QCEza3bm7bHV+/IBSwhTZvr6vb3FnTGuiG
qU3dDNY/eq2ve8J1zd221g5mJA6ZjGPC9KYqX9CORwkGyXiv3R2FBbjRvX5aU2I7AAt8PRCNhJu7
2VbSsq+/xdVIWtb3twzs3hqith7fxPlYPHBdQ6hu2uymQM3m1r4T7qsZkdjazsK47SFm07TtUWZT
w+ymPTb0uU0zmnpYhh3fOq55ewa2Ne0JoKPQWpbUkkqyESAbUMegOXpYkfb37YkCrKetPK2g2wt3
M0DrxP46BhbuZhN1tv46Fuv4RF2U1hHgYNjxM5qGnjU+yLkD7IEZ8X3RtJ5hRWW2nkBPtGdqT2fP
+p67erp7Xul5t0fe1/NlD4u+Fu182O0p81cz2kz/TLa+cX4ju3IG89MZD81gpzW4+ekNSXzDdBd/
waTp/IRJ5fzESUV8LT4mlVbwlVVF/Oiq0fyYqiA/viqVH1c1nR+Ljyg+qkqL+KLiRXxxaQlfWjKD
LylN418pebfkyxJud/zYjp2ZtWW74+/u2GkL4fOxqHWnpJXt9Nbya3ZcvQNP68sdO2iPE9H4Dimj
bIdey1+zycl3Lu9cy2p3vPMTNnpnUnJZ9I4kX1n0VjeWtrl9ZVdvcPq1q7QN2g3aFm2r/yr/Df4t
kRvWb1i/acuNWzds3bh1kxb9gWQr01b5V7HRiyVLmbaCCRxkAs8yVQe+OMAGnok+w8ICBhbYFrDR
trvaWG0Ok6/b+Tw9kw/rFXyu7uSH6S7er6fxwcB4PqBX8s95a3ivbyLv81byXr2Id2E/J56uQ/fy
dnx06kxUHzu+TFNz/WBirPvr/Jan6vzyvjq/hA9hb52ff7zOz+2p87OP1vmZXXV+eKTOv/+pXP++
J3L9j0dn7g36H90T9D+yK+h/av/T1if2PWnd+/hvLHsefcyy65HdFtve9XvZ6J71e1htV9Wu+l1X
7uK1XREsrsTiE7te3hXfJcpSOW+xshi7OJZlgJ0qMLuZONPtqIO6GeO6nQw+N4zbLhWF67oXTR+3
4frrU7u3oed2r09t3i1iH9RpN3NDc7dY19BXhDBB1+qurvBZ0M3VdJtqOtq6TaHqLrKhkg0Vo4Va
062RshaqDjPdek1Ht46lMw7S1Y9wV19j4oUowSVne01yLquRw2FTmkkXvhQO8VfwLdzb5A8L4n+O
vxdbG1sUa+ZuITeRYRs8gBI5AC8NBPu98BR9XgM9sA9+e9pE8H24BX4OL8Ab8MVA3W3wE/gldJ/W
byutvRfuhwdhBzwK+7FuE9yItf8LvxrSbyVshC3wY5ynXmP6/zh4P6sziTP4BCzsIaaLuQG8OMNV
4/zcBd+Dq/G8DjKTsW401k3F2lWwFm7C2j1w8CyT12iYCS2wDC6C7djjSVqXi7UzYBHWkroELoZ1
cA3cDffBY3he6/DMboQfneV432eDbBBWw0e45/PMD9kDOKL7YINJJ/9kRDhErMq3UNtC/D2A2KL4
3zATWMAeZ+9hb4SH2GU4R7Nk0qXfVszhk/6IieWBPCIvvv0ipeGFQXvQnonEYK8T6wU4SZ5hPUl9
WCaExOFrkb3boh4OvdncKIiaxEALb7FY2EY+zLUIu+Nv77TZ2EYsfL5T02jhxE6rlRb+tFNREk1R
WZLYRk3wC6wQaaE+9GFv+MMWqDpaHKkaXshwIc4ZKi1mOe8DKX944QXh0Mnn+PITkdcwGv+CO8Tx
Jp2eSVbUxZpMnJnRpKjEcnlAQjifZ44cLW6JHMXDVRZHKhOHIz8cH74q/At8mPTex9nx5EHyu5tj
N7BV6A0clEazvEwuE2ZLoYKtgVq2EZrZRWj6ZzgLy3IzMTviWS9ON5GW4gjYjhdF8OAtEhNyslWx
Izc9yKT2XsxuIce8nR3OSewRPGYgqjPjNJy4NKEe6oX5MJ98rR4bKY60QKTlKB4gWBrkpN6tbCc7
/GGyby/S5/R8ArvYmYwI+czu+MdRmdgzwlQxLIM2O4q2wmsWshczn3/xBfZmyR/zCPPwGpnRL57e
EZUYNPU3Oy0WU6Opv2DeHT8eXUNKF5hqzKwkySK7kWEYHXeSZG4jz/C6IJiuMHWZWa5EjpJrKUfJ
9SuUo3KnzMmSbOKYdQKD197CmMwSJ1gw/a2AcTAbnXs1+V6TiyzYJAthoUyYIjQK7cLlgllYpNiO
tLTYvo60ONwVeGVaKqsqKsi1JxZo2Wjrbdm3b1/iSdzHEJ+AlmCIC3IhJuhkGGHeazf1XnHTc2wa
I14ROxk7wfw01iYcOrWWfbM3E23WFf9ImCB8jjpbGZ0pMFbJpCcxPkl3ZbrKXOP1OWKT3KTOsc3J
aeXa9E52jdapO5OSvCUONjc3q8QkJ8HFeVoeo+X58yJ5VXkr84SAy6ITf7WkEF+1dIRtX+PJkiFU
JtwUH+TUM00ms8kUSs/IzmJLSxzlZRnFRUluVygrK5ROWlx6kjspqbiorLxYmFDeXDt6y8x7Yn9f
0Lq8Y8F8xnrv2i9u0i7/6+aLH55YM6Vx/ITHOracWKEu9+S6nb45bfOZzKd2M+mL2haPnPTZknmT
ptR9tO3O9ydeMHHBAjrmD4R7cMwZ8Hx0lJmRTCY11eRUg2qpOokZq05T203tykJ1tbo6RUsvjYaY
UMjC2WzuEgubWsLJayQm3ZYu2YK747GokwwyuBx4csXBRgYOu+NfUw1j4cOdpB0Ln+4kWoeEqk2k
cDIaIv4El2RpWdEs1uuSHGRviZpNspBeUkcmMR5ajz4RHA0XOyoiEaJ4Ykg7blAtoDn5PlvaIFjE
U0NmE1uCnVSUldtRLsI962LvbHwwdnjxkk7mbmb5lYx0u8O/pqLmoZUnYm8zhYyp9Yna2MVsw0Uj
Glpb25jQfqaduXP0pM88F3r9w2JPxI7F3ok9kZXGrHgQ7XgNyvH3qBsF2qMhiS8ycTJXxIjWFbKo
zJZ1TmBncxZiF85CRoZp1GFqF67fLliIUbuQDGsXUQu3wtI/1ONFtl58HIGq3iL8JXoPlhbbQ6VB
F4qX/X3vzv372cn799/G333bbSfn4/ngnMKvwfMR4JJdLMeXYgQg+ndSM4NZM6NIGZWcEMaFUzSo
YuGNqEJOihHJGeH2MXpGDLlk5Iyw8Am9ZKRmFzkUs9w0cDnw0tiLI2FyNTCoBO3F9iC/5tT0A+zH
wqET7yTOSfgaz8nCTIrOmSkzI9gRQpm8km3lVgqt8pVsJ3el0CkrjdJMebbCLeJWc5dgaJBZTjKx
wPI0kPBRcmo8DSfoaHw1P4NHmBWJY8yiJCtoaZJ4Wsk4WB3SqC+SiDWF+qOFOqONeqJM3dBLD+Wh
nmih5lmraqpfnapiWCL9BDo1CTxpE5xmGzmiud9o5gGjmanRzP1GM/cbra9A4+YxajTzcusQo+Gj
Zeim3V2Bc05VpYNGtjCuEHaW8Mt4tqUZiz2LeKalGaMfcfNV0LIKgzcTYuwhnHKZoPD1gdiCNbH2
PYzKXM+sZ5wCd+pWbumJXgxy+7nR5L5EV/w94Q3hS3BDCH4TTeeBNykWxeEGtynZkuyYxcwSGszz
lSZrk32+s8Ftc2E2H/WQIUt04Guky1ysr8TFBksk2YNWoCPyuLh+g2DhSL9Dv9/v0F9GS6hHd2Vq
mYyW6c+syuTSqEHTXBqVupZEZ3MT2UGjLVpHRsIsR8MtLf0lKnU0Cxk+k+Rw6eyZcdNpg4TSi4tA
SJvTtrB57sm774zFZ89ua53bxAg/uis+MXbqvQ9ivYx4+DBjFrIWxQ7v3h17u619ccfChUxgzy4m
uGRBx9LeNiadGRV7JnY49mbsOaac2I/oahv6sA1zpbeihSP10al1el3qVHWG1q6Zk0vAbDOzZrPk
KZE5SdSC/iBrdwWgELOKTuCJI+7si4vfRBXqhZa+YPgl9Rai0v6o+Gk0ifrjyqAWrAqyyWZdooqV
+m0tDTifRJ1P6nc+qd/5pP7DYeEjeqmk5YFBb+starEdTxRbSKpTdXQghjI6nZJCxLWKyOxjLqEx
FOMNBtCyMn5bzZgpr9514ABzy9WP1ja2vFRWXnj5vKfvW7stEsnmtYX3j5kypRcjYn5hxQMbp6zK
8Pt6fx2OFC5L2FC4rc+GJ6MNIpPK5DMjmYrUGq1Wr02dzczUmvWVzFK2VW5XvsdcothZZgf5h5Zm
bwlLlU/Y1BjFhIgVPCVmjmQSaOpokLO7NCtjJdZNJRaxphBzWOkMYvWQ8VuttgDGImpdaudkTiL1
nA6C2pd2nupPMvusK1DrCv3WFfqti4W/UKMKQ4xa1BsuioRbMDEZMGtlwq7owA4i3I22db0ezE+C
QSY4YF4X2tt5uomF22LxmBr75ABz98adtdPm3HNDW35JeM3UTw7Ou254fpid2tstHArlF//40rtf
L2d+Fl2YnurufSmYn7uCZIBXYzbD4sxeiA4NEfQ7Mrj83X2FAhISbyIlDx21m3ISZRedqHSZMMZV
P4R8ou4fJuZ4MvwZkQqxzDbCWeovy71ArLFNctb4L8iuzm1iG32N/sb87yQv9rX7F4dbI5cndfo7
A6tzV+df7QhJUdVWLhLCUG735vCppmAwsySVlWUVM6dgjstLA4CXxAoLsa3X7oKgV4L+cEIUEtWo
VlYXaUWdRay0bDimg7Yj4bC9osJ2FM19NDKQVdkxRmK8jLqa7LNyOuxLci6zr8m5xn51zq3223Pk
lubhhXht+mXQ5+sYRkqLk3g0fim9EPhbWoIRhSYQGZiJJdIw/BXYaZOm/n7b3bH4BvViJucHu19s
W1j30IIDTzCVX93JmNrVxthnN/70ydbLop9P//kvmPtnPTAqWls56pt5izd3LZzn1b167m9/9tgX
lXmf1s6/qqNlWYqa48rr6buJzB+j+XdXNJnhS00chwskv1QvcTCHYem8rPOYVUVlYiV+Tr1AUvRP
owr1XbHPcT/d2eexfz3DY+M0iRcifbI/Hk4smvrSCuKPpUH+WO/nB3o/xzMJnnhHCHaTM5uLacP1
ZPaG56IPTOSWcJdxnJVRWJ5nBUG0KG4mmfMIyWKyMowbJg5TRrEVXBFfIlZKxfJIpY6t5qvFydJ4
uU5pZGbjmc8WZpmbpUa5nVnGtvPLhGVSO8kB+C7xCmmVfIVSYNHxVc26SUAbMByd9yXKuKiRWBwq
CtfEmjhWHAUlpjqoNq2DS0wmWIWTd5U6X71S5U1LrLZj6CJkfGTJgOOl+uvFX6YFWhicO/G3mCG/
5utj330n9mzspTdia37LVDAlGPKZcsxdIvzvTubh8jGX/8PJNP59jGAd8ff4VH4tZEExszTabJH5
ULLsCvFhB7FtHuV8ys3qtLS5eUvV1tSV+ZfL6/TO1MvzZFbMGV1oj9pZuz0g1qcwKSmeqgA/fKwo
M6KWyqTas0vpQFmi1oECuZCkkJgVWC+kKmCi6Y2jb0o5ErXT9MZDreTtm09O9afb75JohhGPnhjN
iVyShCWNxsEbS7VSf2lVKVdAFnpkXxojrGSXApHsUuBTSGpVTuMCTWMVkfRTaJquUNkqdAZXksiB
SRlZJodXNpQMTjt9Sc+Rwbs/9gpbLw2eRRE6DREJtyQSehIyiVIxXoZK+9ZJqEsMkBnlCZ2SNVKo
tKysOBFIObupb82ESuZTH0tuzImsm37rqyvaFzNp9+bn5nSOvmBXm1z+Svuah6JV4x6b+Un1tEWr
L11476X20Q63/+CPr7wzPz8gpkZneNy27MwntIzsSMFNy2Op6Ay6093W2No2BX1gD/rAVpMOTggw
juiwErZUG+UqDFSzNVqdKxqY5VjiuFK8PMWiSib3ODtvYdKiJlkR9cSlNDWSwi5iLN1HZ/++VdKX
/fnB8ahCL6Dad/U+30kvVv/uWPgqOoxeua3p/vSqdFb1SZbEeommACLpLtGMVvJayHqDXDcsvJ+Y
1Cy0s4VMauR1LCSmKGRPi4nsaSGnQnbGwhe7yOtYNgWHZA6JqzWQPpBLSi8cmerIFeuPqVnZZpzP
7OTqOLgSeq3sdCnLb60fP/GBxfNvqLF0763vWXngo6euunn6L2qndk26Yztbft27k+vr83FZrff+
bmxD7JXYkYMvTxzRuz4j5UUSjZbG/8x9xV8KQXg4OlkL1YfYMJOu5iZleEYyperIpFLPJKZerlbr
k8Z6mplGdSnTrq5julSnzaZXWfhg0FvFSVqIrilCUWri/kTscL+hD0cLqH2vD7mpV7t9EvV3SaQG
pgqQ6LQlUZNhjvUNtZS0Ib3fUkfDfaWhC/4WuuIntsEZhuSpA2v9hNPi3F9ezH017/75lz1fO2kq
k//31j1T5JmPzLprz8P3VqyJDKt1yRPyiybW1r51M+NgRpRlHxpf+8dXnn89zeOK2NE3l6Nvju/z
TTaaWektTBkRqPeOS6kNNJk6TJ02ycGwdsEzVuUZMW2cINv1fxFrrIlYkx7tc8+voyEacuhEAzZa
Sx0Jcqn55L6gcyyaT2ONRn01EWFuSvipjxraZyMtPp/oIUcSyf2DMDmaSI8m0hWaSHuKPDmmSD1Z
FMmRxA3B0xZQQ9ZPCc8sKoJ+V8S1aCJwhNJZO4kaNEzYizn7EIPz4/dO615y8LNpNdUPtzVtqtu7
d/LaiT/p3rRt6r2XTLiQKWHsNxy+cPLUzGzmwxNx9vvp3reef/bliWQ9sCx+hG/lrwAP5rIHo9lZ
fNhayI+yVqaN5+usdWmzrVOTlllb3Wut69JUptLv11JGu3iFLMWTaXBUzFUaijRI432QOmIysbKV
lrwQ6HPK49FqasMtQZLoVgU5P0ONw8h0Ge5zUDM6qNkc1D8d1GwO2u5gyc6ODQNZKhopoV0SiYsT
aVOYZqlHiXsGB+83udBygcRqyuHqC7Z866nnxpSVbJm56s/D5fkHVsQ+jR1kwsff/9sjzM3bbt1h
YX1Lbh9eWDgn78WcMkztXeij42LffJV7yz09V6F2qwE4hykNbfZsdImXepaXpvWiXqFfInCYAlW5
QFHHiHbBKgK5LStpkoo+Z0lMNHSKoZJTqFcoDJ1ivJod1KjVVq4mER9VA+TIKt1HHYhuasH/tfcl
YE0dXcN3ywYkhB3CFvYdQgAREAmrrIIgqAhKIFGiLDEEEUURRMC9tda9atXaWty1rljRWpe671u1
bm/rglpx35J/ZpJgRPq+Pv/3/2+f73nKfTg5M3fuOTNnzpw558wNQE4cqKFoN+SYQjocmINCus7h
Q1qcKTb6OiUUCt9pkABtxikqCGViUPYO7E3a1WvhZAE9KJeQILBBQT0jTQ0cJe7VpXiWanNrbe2B
XVFSb9oQltnI6e5L3kaTe5a4HTxnxIQrVjWIigV65AL89QCRX6RZb2+hb7ggjpViluod45siGIzn
03ItR+AltBGWNTQ538SZZupk4SlyoBjb1W26TEObyBYOisEwFJFs/2gLhjEdpzu5CpGQTXVL3FS3
xCEi0mgID6Nbo/Xd7xPWN+/jtS10FEYJCR+kej5oVnxsrVEO0BqubTdIyRoZS2s0f9Z0SMkatYQ4
gJMD9XeTfO7tv3APkHfg49O5vN24mBOwpcB31xrPkK7LPbTrclepVE8Hrc408D8kKZjg4uKQvWgM
WP0J0TvzxJOSwH6UUidatKlhQeY3tarbquc2Vm2mIf5eHmVxw+JicSec8dmp1D7pHp6Ct+cJsbP9
yQOt+6KAXu8AijsUWF1LPEhkRlpYWlRakFw2M8aM4uA4m9mthX2JNhtC4wsgrw666tqk1VuRCZoG
Sm8aoD+nRVRaD8FZ599tQdMCfbRgtIUhhcYMNO6dtaN1gTXB/WANMfXWEI+t8xHYWlcRBs4oiNb5
CGyYzUUBNYo4IDc2IgHKj5GzABG0BbKbrfQWkGbyPjDTyPL4wNg4SuPiObmYdHpzJjqXwdKCGtpq
am0zJCXtu7TW1oGtRT/8SNSkNbl7e6VGvP0ROAfHkjIvH4OWeD1wCybRrqAznRUiMzyOAOIJJUg6
iE5qWThrNhKoL5JVAYUGpj10QpaEQlKgeDiBMqAFtSiuuqY7idIKRJsR1AmEphMITTMtdBRgaVIC
zczO4ebf1kjgtg+KRKLQeQUOrAQJj14mnT1r1NpKs/7ptRuVD32bvUCP1gM9MsRei+I8iYv4FRbJ
wo3Zjrg94cj2wwPYAkORYX9DGTEWh0dKOA80ZbK2EIYGpAGToBnQGDgO4iOiwEBuACJstH14It3A
2Hy2iE0wSTQOEo2fpGDHSTR+kqc/6JtdBt051s7R/67RAhqlHfsLTXAJEKQFtClGH2sBTBID7z4M
pTmjkLcIQrK2trHPrKk2GJzBs5tRTi64Rg1AaEatf6kSjW1tJRwfvHuF31WqptHN3/KIgHdvgbR2
AZFVobO88SIPAseZcOZma1eLxqdDOqpN7vJqcRzXjRHvnFjcqDPlrc10a/cLHA0Nh64dQpqp99OK
BoSmFIbOcC6rWltBVzS2gGEF7LkPfkiUQrqSXmauZl5x/Dj3bd6MrW64m6O9HdMqxtOZsqfhXDum
yA939BP4ifwy/OR+tL/uvB808Vaww37IV8BRahZnavP391AUgcP5NkHjEaBGdtohdSADgcNMig8a
DHILcDHXzdDOGPE0RjyNEU9jxNOYx0WygHy4iA8on9YEmlx32JqL9gQutGWQPFdn1ADyBqkDQNQi
J8iK68hDbHiIDQ+x4SE2PJ6dblLstGoFMNTYTqd4drrZsevcve0MIAk7TZCrQUQcyMlO7MgVcSdy
SW5A/tMuGsj9sAyzR++baA1TPkzbAfXs9U4IwtCw/C4GCoSZJl3slYVmq9FYLYZVK9vCKqdf+pJ0
ktKgaYugAVtfpFjqoWgduX09UZPY6Onjmx5pFenwLoSoSZ7s6eMDjRqVX5OUWZBdkP3bIUy3qwBN
ssS9uu4qtP/LXcVKb1dBqc3OLUSlS0JfhzPcZQuBWVVPpI3vNxO0jWi2lL/eTJBWfrCLaNZW5/by
P91M/tNeYvEJewkSO9hKoE9/gxoFJG6IWQELzIvgBHODzSMsUzhx3DjzFEumcRSLsogiDYw0gkax
s0b0AOnQuJFGtjYirUzf6iL665pVhFlrb1zW7dcPdRHnc11o/1oUqQntbYxtHG2ibMptKFMKuW5I
4qZIyqa2dEtImo7yPXTketGR10+HzoENpE7nQtJ0dKIC7wE42frfnD75aI5Y0AmA3jmKJnLXek+j
VHfuP1Ddxa0e3Met930/b8Hq7+fPbSH8VY9U+/FeuAm4IlU/qR5dOnPm0ulLF2CuRCWhPgMShfGo
s8hNSIRZCPmxRJJFDD/HdLjpBGaNnYEuT0JzENFZhkbmOpkC5DnSYm2eRCvMkzp1/lNjK2BWC5U7
dCr8sVSf/9uEidGnJkye6+a6M3OitUaflDn5OHXyb3InncrbNXfSt0/MZsmAGUmtrSm7RvxyY9/U
Wf1WpmRUJH21gejVfKNvcj93T5Uv7VVlVLbqhKr9l0MJYe+aXHlnUaQhQZEGnAuGyCeCjOQJ7ML5
qWQKL8EumQ9zAzTChLIWcSjcyCGGxjIx10T/n2xpPjVH8Fo0SJN//I85AvQSBZOOcgKmH2UGOJAK
k/nv8gNdtoCuCQLcxeQ/RQytA9ZIDj7IiovZVJQ7LRGECH3HJKz4fsoXmStVEoKXkgTcFM5nV1OS
Mjw9BG/3EGNc7K7u23+mj9aCkwrg2plirSJzjM0FPhjwv4yBXY81MKaxmOiMQ5f+E3ki6WDmInO5
OWHEQIJjoOEykHoxkIYyeCydhrI6nRitOus0FB4HikxQxsoVqifLQJelQuoJkFeadFWzWfdeGtRK
sAHCNyuQkD7a7EiFgXd6jwHLU1pb5S2DAn19yc8MWGmRb/+g8r/JTaEx4OjL1P8iL1BjsCA8SzSA
TrBsLQgbW3eWt6uQ1cs1hpXqOoSWb5nllBPQX1hOK7Es4EsCpELzsbRaEyW/2lPpMxVvZk/mNXnO
wRfaGmIcay/KgZzoDMwI1AlnZ/femghYhNJxIPDtTbKcOFC5fKAwvJDkvJDMvGxDkE22RlkSa3T8
b422HBCiPv8BRaIcnW5zUAYWZQRsMSdrBtpBtbancyt9qj3DNdfank6T81Jncl6KPJBez9Rm14eG
1IbQGMhsM1CSnMFD09kYjNLh75Pi6EzLxyeg0y53JmkAyDdBrwDko2Nal/exb0iwR+fBlU6TOzOL
VprDKytL8sK7KzUnEgwGXZbUTHd3L/GsC/liXFh4z7UjJcfiDBKPFw2f6eM9JLjOZ1KfPnjMgv0R
Lmdi0zNyYpydrVnWHI95ZfFjBQGhgS6HQ5LS+8a7uFgaWRs4JCWDue6tvke8oy3BbLFNohgjGo/m
QyMNuYzebEMDmq2tVRTJSrevtSc42HR7JpuLtJWLJoiLvGwumiYuz4DJgGkcBkzBmqDXLVAqR7sW
dOrN6FRvhh1KeiAaoPaxZgtmWKG3LprtPszkaPQ7gPtcmA9fpwmICgpCeRxtSjYEZm/guysWTibv
s2DEu5DxgS2bamtb8QZVDdPaMi3dX2JpYMAx3X6EyFyCR6v2LFGRA4t8PN1sWVDrNwIfYgBY85a4
rcjckG7DGMsgCZoFi2YSQzPAmd2nW593Y0wfiuw1xvQjb43QmtF7OjfiuShIL+znaOypxlP766if
CV/TgByYnW63NgWrkzNTt6cyoWjRRsdEJJg6Rw0gz5AlYTZZdTnl+SA3qxE92up6af20EK3Qg94L
2ySIGtA6dJ1sw/5WLs82JzNpbUprTUrGhZPEuXcN2dU+vp6pEWQMkHEksKC1QMZ0bIYo2p3yoveg
wugJVBKd7kULo4lo/WgFNBqdB1/n5JEE6Yl5kD2xUDIZ60NW4mMJJkYjKkmcpBFMAicxaENcWdxQ
I8wOG4GNxShsBtOYiZOkGSklK0mKtEOvt9QzwBLNBztKPlyiYCz5mgg2X3OqiME1qTlSpGpVvXar
oo7iuTjQhDcrqPy3TWQ16E0OhoGu5mNGWMcOjAmEq31dpuP9GyHodcunoibkBpP2pC/uTXiRbpQ7
zZXpYxiMR9Di8BTaAHwgNYg2wLCUKKQkzBEsicFIw2p8PKGglMxxrAqDsYYORnD4DB6dRsdYXBbB
0h2jGtCzO09QgQCM6Y70ADqJ8ZCFc0cKNJPD5URxyjkkRoc+PPI0dafxdPSOFXIt0VsV9EnaV5qE
yIJpz1s/PG4F24kP7qM7cjUDIjKj91BdXae6obq1VnV5/zHcahHusA+Kisx/C8W1lBTDX7ieIoHX
AueagU0XRVP0YHocPYNeQJfT6SySQbMhrWgJeBI5EBuAV5MsggFHTeNRJJWEJVAERhIUjTAiikHo
T5AkhebaWTvXyWi2adgMljELJykzKp6SUpUUjapncm/DN4/y4StZ+QGYLlehnek27QGymWau3ykP
n1TFHsUH4LlU/msGfpryeLuf7KV5+9pRe0mwGd1c27Bz2ONPufBycN3VXMQMcJ2DF+lI3iBvUHU0
F3Cdp2+kq+DFaPj4Yjay4llnDaYYuhiuNZrF7svezN7MSeZ8abyTW2FiZ3LTdJEZz5xr/qVFH4sV
lpHgWvTP9c/1z/XP9c/1z/W/5cI037eG326YScIvLPXHuJir+jiAvuqbAPZQtwMYqh4BYDiqj0M1
g9QXAcxFeB7ATTBj9QQAueoCzBXA4wD2UD8HMFTdDGA4qhmght+eGIjqB6GaXMDFFVA4jrmjp3wB
vIkFIDoBmDtoH4B5IyhEMFSdA2C4ejGAg9SzAcwDUAi43wTQBMFQQCcIM1adBdAEQVdUE4dgIoKZ
AIYALosBDFXvBzAOjCIE3Q3R3h0IOIYA+oexHoB+O4AmCLoi2EN9D8BBgGMPJIceoOVNLBTwvQYg
F0gsFHCHuCuQQCgYy0UAvREUAvqhgMJTAEPVOwGMUwMpYwlqIC/QBwiT1f4AZiI8Ww2ccSxHnQrg
QIQPQjAXwTwAwxHfcCTDcNBPIHE06nBAeTGAiQhmIpgNxhsO6ECYp96DxQFqfwKYC+YlDtT8icUj
ecaj8caDmjdYAqDcDiCUVSKASiwJ+IG9AITznoT4JoH2zQDmATopgGY7gLkIzwN4XyTtvqAnEM8E
MAO1yUBtMlCbfqimH6rph2oyUU8yUU8ywd3HAOYBmIXqs1B9FuphNpJANupnNpJ8Nhj7r9gAUHMR
QNirQeCpVABhzSDwLMTjEJ6ofghgJoC5oM1OACGdXNAG4lDn80B9DIDw2TxQD/E4hCeAp/KwPoB+
HqKTB+YO4pkI7w9w+ONP+Hd+E1+I6f4IAgg4QEmDEwCv1eIkqC3V4pReGxqIhJq0OF2vnoFFdOIs
jIMt1eJsPBVbq8U5mDf+Cv4lBooEvIwIF4TTAM4lghBOR/WxCGeg+nSEMxE+FOHwf7BLiHItjmMc
4owWJzAOWarFSUxCJmlxSq8NDbMmx2txul49AxvdibMwO3KtFmcT88nDWpyD9aeLEW6g139D2Df6
Dwg30qvnQJz+M8K5sG/0cwg3A7gp/RbCzfXaW6AxanBLvXob9OwzhNsiXhqa9nptHPVwV9ieQSLc
D+EmEGfq9ZmpR99Ir95I2//VfKEgUMBPkxUpyivKhyn5seUKeblCrJSVl/nzo0tK+Jmy4cXKCn6m
tEKqGC2V+OdIFRJxmZgvq+CL+UqFWCItFStG8suH8ZXFUj1CwxXllXJYXVReKheXyaQV/p03w3VE
MqXDK0vECliuABz5If6CIL5nZzuvNLESUK3ix4oVSqliUHklv1Rcza+skAJmoAPDysuUfHEFXy5V
lMqUSqmEX1iNuhGfnRoN7ipQQa4ol1QWKfmyMn5VsayoWO9Z8CkrKyqplIBHleV8iaxCXgIYiMsk
4CkZaFAEWknLlP58He/yspJqvqfMiy8tLYQPvSdVpmvcbY9Qc4msbDhfIa1QKmRFUMJ63MHjnbQi
UAc8ZYCLUloKp0MhA1wl5VVlJeVifaagz2JNT6UKPhhuOWAFYKVSXqnkS6SjZUVS2KZYWiLvMqBi
pVIeHhBQVVXlX6oTtz+YqgBltbx8uEIsL64OgCwqAoAJLccUwESIsRKsDKsGpUKsGmdjUvRF6Lvg
9/39LEwJPstASC0GdRJyIbmR3E3uAb87yJ3kGmw1xgfGQ4AFgl8+lobJsCLQrhyrAL/DwLN8LBZR
kyMoBjUygJVh/uBONKBfAj4zQd1wrBjcq0AlKfiUgtajAZSAljmoJEH9EIMWMtQOYkpEUwLul6L+
jQR1kC+8Uwxqu+/RcFSuBH3StS4Cn6WgDDnIEH//bp4M/6gnsK/DAaUSxF13v0I7Rj5wAfyBXIIA
5tkNPS9QByWi6WsVkhWko0RUBqE+8tHIqsFnJZKKZmQaCQxDXJRIFrAsR8+VgrtKREMC6grRszpp
xIONLRXIXfOsQu+OHPVMArgUIYoy1P8qxKsIwO75asqwbRGQQSWaCQlqWw6gBN2XI+lUo16WobuQ
l0xLoUhLS4og1Iqu44b3SxDmCZ7yAp9wtgs7OXXXq7KPKH+6jN5TlyBKw0GdAumEEvW7qFOHux+7
hvvH/YrQkwAciWYsSsRPtzogfc1YJaCmCo28HGl49yPVyFn8gUylaF7LtVAzKg1eCUpyBPmot6PR
aKSddGDLErQq/t0MFSPJyYG2B4CrCl3+SKIfare/dlUFALwajXA4GqMcUKgGtbpRVGD6FgnaHFln
+QayUNIPLJb0A5uErBLlQAVSKVQfKhLAMNBaDMYGpQYtWTRooQCjLkNPYZ1/eAl4cGO6+QsOmhbI
a8FwtVrz16cw+N90LTHtX6Uit8Jct54fhmEGWDDw4vESsbIMPAt8htT+iXzMMjM9jY/ZAV5qxFEP
dj7XExiR7p9z0HsC7/zEMaKkvKgE4yBojujgWmoE9Iu0Ja720x36ERhFTiGnktPI6aBEYK+w1+CW
I85HJSaGkzMQFaWWmpae1TAM0/3zX6shgnqrXDrLuzGx8QUbZxDL6q1SQFUfAscDDQUsOs2HQxI8
GiYQ0w186DiF14cSOLUsS9BP4KtXY7fcYaIdcP7hlQ7WGdQWOKdQv3rDS+CkR4wyP3RmZ4GfIWOB
aknL9Zt3Vopq5vo/WlZvGiiopwoE9WTqMhJ+O9HAv8Xk1wx13ldH2nRP24OuyAN9BF50MpsyNHOO
LZdXK6Drw/cs8uIHhoWFdnGS/AMdBHaaxhbduk+BTgJHeJ80s35/P7O8XMmPrlQWlytkymqBgxVb
ECroKQQ/QYECYa4VO1AIiiGgEvzkCqqRrAARuhmRnRVoJjCBBaaZwQBxRTFwJpSADVfAgZUMM0am
VFJaXibRdczgrzrmInDSdIynf18i5WfJhpdBFyUjNlpQjzsL2J0TiOM0jKzHjTFQb0DU4zi2rXr8
+fzN8WHfBa8JvPzKLSSpqu2N45KD8aMenUq4c3b6TyNTMwufLiB+SruYVBLg2lu657jLNsPEbbWV
V+N3fz+Lk/Gzm0/Hsj/YLo6nol1fFy44YRP/zRfJjguObQ5w/inZr6b8koVDxPQwbtjV3V5Ph0X4
4UK1yiNx1Q8leNPiNzs3FdXWv8pbVtcweeaGju1zVpzouSpjspVHU9+rgudY5NMDryLrfmx8UBL2
rX/w8y3+6w3GF34+Ztji+RXsxvUd+5/wd6Sbzig64ntJGG/zcFfy3IiMLOvjw/pVf7+26VBO76X1
Gc1ltI0he8e57s4cFrmg71GfCUFlDX3op5acTG4kyhqxlW1Nv2URJFD8FXWvBXUvBGZAnPZulJHA
gM4EqkujMUhSULcc1uJU3UJB3byJ3MEn5Y9kiiUu/SaYb0qbqT7yteK/r2/1xthebFqvXs0mp3o/
L2r/TSQwhn00w3E1RROQ4ENgDys4lCVlftT++GhMPnj948v7+y7sF+e/Iq7oT4EhvG1MUWAZNeot
HRJqxLiWdROS3TuOt/ZVLh/oofSu3Nz4riV1zhgs7e4v961/lf3MWV7zhIg98EvT0ZdZR/ct3Z1T
/mdR3Oo47OHcQwvP2W03XGrDnnPhssNar/GPHqyqWDPrWtjMyPkjWnuWnm5e7/Lut7vnZazPm3er
bmC7gp+8qHnFNfWn3fea+0XMSM9R23rOus5gH84vPrZ7YvTIYd/t2rZrZvAvHSS3Zuyz09djfhun
unFjjer5b+fYm+XnZ99K39pzeY3f2cgrwYaFocTSuhEuU57nFc3akLsr7ELB9OwGXtCziPnL6o2W
D5222Xfb198cabnM37pHYDOZb872bs18Gn19iODWbE9Z0175zSffthyfGKMYzQE2ZiywMYVaGyPG
T/RGttBYfx3RgJ35G1c1NDhhwMaECoXBAmEYNDiBgqDOoqBu0v+XvrGR4gDVpdLSMzJ1zcm/aP4f
bc9uwZQ38YrvskYumZKOubT9eNY+cuMgUc8nFZ/Xu/8+1xTLumRXz+l13H7X7hcxM+adfduTd3vH
q1vtZ8TknmVnzlem5SWsfjDkz9M3ZYN5Ffc2282gjnnFLZMMCnCYn192sMU6rF66/9vWlspmm3tN
88zdN9e6j155tmdYw63N7uesX/ncPX3YMre/U8e8GU2NXqqnSb6/T3tJRY0/dmzu7Eb2KPLmSZVR
TIj6wvaoqzPjDcY/v5CydvCfoxX2VS7jp4Tst8vflEGm9CllfJvdPJ8+cVXd2v59L9adf70npi3w
x2z2gnNZSaaC+//6prlmyP6xueZNzC2hsmX3ha7TmfdfnTXfef3tsXsrLbS256Wg7ln3tuf9Ku45
hlZxyFa4aOjsxuz1U3YeWLBRORNNn70xXPVgITMmIrth70JZCywndr/s42ADRypSECEIWxa6LKQx
SBs/FilKusSP8pEyWBugjborAmKzgOL5gypBoq6HOE71EoQLeurKAqLR9y8DUkRQqtCjpOyyoJD1
8SQntZixH6tMymNGX4xt2X4g5rWrNHhd5YZRgplzt056rbitOhb6R7h8fj8+Z+eoLYefnrs99Y6n
vOLcgxv7xj18nBOcO7H+PveCgrxn2rf9Knv6uLh0I3Hlu7LFjKvHfXKt2WEbCt5dVlPfEysuvp65
YtfuvSP6RwQOve1bduRxmrddh8PocY3rDzSd3+j9YM1RTtvtpbV3TtxpUPSvty7zPrTkyy08h73l
X1wpXLU3ZeTaww8iZ9/aFNAytips+AhsXP1XJPda0ZdJ7jHXvnTe22R40nzF0F8rhIoeDupDXj+7
ZqYPSzxsb7/6Z/cwWUbfb9v30Uv8FbaPnS6XuiZOrLMQ1Sw9quyZnA6sz1fA+kzWWB/uCMMF6W2Y
W4vJlXjHgWOHL+9qg/4eX6cHMD49BIGC4OBQaHrCQPFv8HX6y0qlFUpxqfxTfZ1fQ8verD8UkzzK
+tDxxN5Zba9bzHf6CneZpmcemvSgd9ClpMDZnls/l1x3zGjYuS/lVC3t5aPKH6cd/O7cOpl82BiP
YXe2bns0ecexh9+/M11pOMjZK+CE6FIOZTv6h1JJaXL/K1cfX9uzdNLBib/VphKhc561LWHmOBT3
OXapbXRewPitbtSWnMEj7IrUE2t6PTxHuaWFVSkZ+fvyLjaG+lYe5txzCGPVjFZ9VVI29np771nz
loziDPVOty4sEC45Pamvj3Necfy0awEN3IxNr37gzSh56LbI7OUR7oXJnKf1oyt6HPhy7PKjBfR2
2obGoG0v5wxuiG4YOHlO2QZH38Sj5Ytjr4+4U+s+c6TG3tTjnkAirt1ZHOb/Dm+HS2dpIwsLHLow
mJ6hLL/TN2rejuCWlMZZrYvvrYmIjj1wUmDT+YA5QRk5GIBYshJEIbFY9Iee0EduVDcGak6aSeC+
moxdJjO/FjNwznR5/IxHFf13R7Fofurt/bIm2z0I+3zbihzDa9O3RtieerPm28PbNvZzsi1nyiaM
JJc7Jzwo2VJa47w94UzDkxnGPzKm9th7f8JdeX780tmnjx6/OrPtxh7vYzXth9cJzzXtOFK0v8cp
a6c9o69FLNxsW7HEqfnili2m/ac/XbxPmrzQ031xwVTjiINm0jGJu06snRSevqFw4DXB3bth9rem
dFwOq3tl5jRdMrGITs3tWEjEBoxLaN6pJi5JXyVfu0wqv9hMKzM6+tWvnuKaxMdWi02cehJ2TWvo
P88Vbv+X6EBW5O7VU67dGRY646nz3MVHN1T17xd+XhG3yeU5MFDfAwM1W+ce0ZYLkHvE/Pvco48M
AbRRPYE3FAJMU2BgCLRRQZpiICwK6jb/N9wjD4GbpuhQFiuTw4xuXFY8Pz6rb3jPkLggvyBBSKxf
SExsQqCbwEUzJrsPx+SXBQfFz5IqYAb4P5q3Pym/TXPbeHXD3Ta6F242Szku2Nlm2vNtnTSYsb/H
Jtfi5wyqjTHv6bbH4xwKfRMupazsF7ztTMmD3Igtk77uE2nC9A8ZGf/7vl7TiWHEamvZ/eQHHr4P
e1UNXnlWviBlQAP35Hq/l1Psf7/nteWPE0vohd8q+u+LOHAiavuNDQO5Jf/65sJP+ypDdz+dfKPu
judF28cd6x7Xrzh/gVy+1KLhTeTrlhtbhYeWEZInv6t57qOYWVMtiI5JHqOT6kd9+2itcMyBCyWW
6c7SeYVpCQFql/WT21fJd5NHLl8U0n72+Uy0dck538aSbUfMhONnHJiwzipA+HbYLvsN8dkv1772
Gz5puNcXDadzv3bRd6feG4Q7856/eDT98e+yW4OK+76YP3Xs1UX+H3hK3VqM/4mnpKyQF4n/n3hK
OkrK7o31B/4fva07a8WOqhr6ea8fvwlZeYVGa3DM6Xi0YNVB5oyAzceiRp1rrKlyvHrfatPumluv
FnQYxCeuNd8l8+3oPbywf8fDWg+T2WHtxy819W1+UdDHZZyHhYi5dA87kKq/GLLVaDF2Ztr3Y8Q/
/9Ac/VXvHr8OXOmxKPzybnq++apNxql7Z/aa1lG44OWwB+ee2HluEF75JZDV+sa5OCH19ZkK5z+8
Zjpjb3L20NfVLbPYGfzKc6ZjciHt6ynP6vrcZX/OvDAwYpbDSJZsdVtiTXZ91FCsZ+xi+tGoiwF7
0itYke92Dnl6sD10n0S8LO1spPzo4A1mdXvPrgjk7Zacn3t6bJT34IQsVq9j5KuoQdjRKVniwHpq
EbBY8wgcF9Q1/Y0h2weB5PtU17K6A3B30k4biww00s+jAb7vS4aBHIH+XQtgNTofpAKBqhPcc85P
MyRFU/dS/C1JJ04c5jhwBcP0HjEKHCjIWeY70fvTj2y+dp/o+gmHTPwulomqx7FVtBdk2apioe/B
hvBVvV7e3SvKzv3tvlvHfuaqiys37k9qpx1xGWthe4ZGLfil1mIB58vmrbkTrL74tvLAb4+dfsGd
d/S63WPzD+slq3Y+CkoUTDC786zhq4QgwdGQWd5Dbhl0jDyUffg72dGzj059M2Ns5p4eqkyzG7W7
4muKV/460W4PVrun93pB5JqWzM9mLHUc/kSev3c6dlLKTbv91dXEFvNtjstzVs87+dPZdXOnrD/Y
bzGWlVmoGvwjz0207sX8wcQ3IUMdNq4VNotkI4uig65yIqaaM5+FF+6YpVrS8HrB46qv5zz7qeZg
6j63JYeqGI/X3Vi9cWjRFPEv46N3L76yyvT8vcbto28Vfl1POArqCdv3s0QPrCeMQBXzv66OXbfI
DzZuhlYdl+ULrPV10fB94hcHPDvv0AKNwY4qEPSE26swKCQ49yNVnC3NXodReN7v1nn+2d/kPx8Q
xrPqYp+gijiHj5jqMmrUgx/iHimH+JtK29euGyrB5vF/vNgy/debAQ3TCxZezjzdPLyHb9rDb9+Y
Esdl8+8aFw1t/il7XeozQ4/P3EyHFMefW/rF09RLAXdX/nCpdN4TfDIt6vGbjlNDPms/tnTlZOnJ
fb86lpFRoRuOWw6cWCV3Kqp2fnKwKfXPjqHP/HfFH1pw6TO56A054dbq9ofR+19Nyiqa4PG1LFl1
8nnJtKtrPHY1rrAYXbF9TsLyadXj3VUhxxNNF8ZdKbBcmxva57o7o9+Oo7EjV9vs/K39F/eSCvGc
zy2GxY0bX3Eq1EUcvXzFg2tbTr4weVm6dVm/hb3U1hlRwu9y2g87j5h/Zlefc0kNRqoVGPZ/ALPr
jCUNCmVuZHN0cmVhbQ0KZW5kb2JqDQoxMjggMCBvYmoNClsgMjc4XSANCmVuZG9iag0KMTI5IDAg
b2JqDQo8PC9UeXBlL1hSZWYvU2l6ZSAxMjkvV1sgMSA0IDJdIC9Sb290IDEgMCBSL0luZm8gMjAg
MCBSL0lEWzxDRkM4QjgwNkNFQURCMjQzQkVDODIxNzhDNDdDMUJGQT48Q0ZDOEI4MDZDRUFEQjI0
M0JFQzgyMTc4QzQ3QzFCRkE+XSAvRmlsdGVyL0ZsYXRlRGVjb2RlL0xlbmd0aCAzMDM+Pg0Kc3Ry
ZWFtDQp4nDXTN04DURCA4bcmBwP27jqvCTbJ5JyxydnknAQNEghugETDNWiQqChoEA1CggvQ0FKY
Hq5g1vPDK+abKWammaeU/dJpzY4upTJcwqOgvQtuHV4F/UkwTgTzSPCYgteAG3gWfMdwL/hvhUBS
CCYgJYTelHLY28NqD/bhAHahBJzggL++Q3uKdfdfaZADWZAN+ZALeVAEBVAIxVAJLiiFMvCADm4w
wYAg+MALAfBDBVgQgnIIQxUMQi1EIQI1UA2NUA910AAxaINmaIJWaIFu6IB26IJOGIBe6IF+6IMh
GIY4JGAERmEMxmECJmEbFmEapmAWZmAe5iAJC7AFy7AEq7AC67AGm7ABO/adRfgP0W/h9Fo4+xTO
ncKFJTxcwYuQ+hC+fjJoMTv9BXn+N20NCmVuZHN0cmVhbQ0KZW5kb2JqDQp4cmVmDQowIDEzMA0K
MDAwMDAwMDAyMSA2NTUzNSBmDQowMDAwMDAwMDE3IDAwMDAwIG4NCjAwMDAwMDAxMjUgMDAwMDAg
bg0KMDAwMDAwMDE4MSAwMDAwMCBuDQowMDAwMDAwNDYzIDAwMDAwIG4NCjAwMDAwMDQ2MjcgMDAw
MDAgbg0KMDAwMDAwNDgwMSAwMDAwMCBuDQowMDAwMDA1MDQ3IDAwMDAwIG4NCjAwMDAwMDUyMjMg
MDAwMDAgbg0KMDAwMDAwNTQ3MyAwMDAwMCBuDQowMDAwMDA1NjUzIDAwMDAwIG4NCjAwMDAwMDU5
MDggMDAwMDAgbg0KMDAwMDAwNjA0NiAwMDAwMCBuDQowMDAwMDA2MDc2IDAwMDAwIG4NCjAwMDAw
MDYyNDIgMDAwMDAgbg0KMDAwMDAwNjMxNiAwMDAwMCBuDQowMDAwMDA2NTYzIDAwMDAwIG4NCjAw
MDAwMDY3MzQgMDAwMDAgbg0KMDAwMDAwNjk3NiAwMDAwMCBuDQowMDAwMDA3MTM3IDAwMDAwIG4N
CjAwMDAwMDczNjIgMDAwMDAgbg0KMDAwMDAwMDAyMiA2NTUzNSBmDQowMDAwMDAwMDIzIDY1NTM1
IGYNCjAwMDAwMDAwMjQgNjU1MzUgZg0KMDAwMDAwMDAyNSA2NTUzNSBmDQowMDAwMDAwMDI2IDY1
NTM1IGYNCjAwMDAwMDAwMjcgNjU1MzUgZg0KMDAwMDAwMDAyOCA2NTUzNSBmDQowMDAwMDAwMDI5
IDY1NTM1IGYNCjAwMDAwMDAwMzAgNjU1MzUgZg0KMDAwMDAwMDAzMSA2NTUzNSBmDQowMDAwMDAw
MDMyIDY1NTM1IGYNCjAwMDAwMDAwMzMgNjU1MzUgZg0KMDAwMDAwMDAzNCA2NTUzNSBmDQowMDAw
MDAwMDM1IDY1NTM1IGYNCjAwMDAwMDAwMzYgNjU1MzUgZg0KMDAwMDAwMDAzNyA2NTUzNSBmDQow
MDAwMDAwMDM4IDY1NTM1IGYNCjAwMDAwMDAwMzkgNjU1MzUgZg0KMDAwMDAwMDA0MCA2NTUzNSBm
DQowMDAwMDAwMDQxIDY1NTM1IGYNCjAwMDAwMDAwNDIgNjU1MzUgZg0KMDAwMDAwMDA0MyA2NTUz
NSBmDQowMDAwMDAwMDQ0IDY1NTM1IGYNCjAwMDAwMDAwNDUgNjU1MzUgZg0KMDAwMDAwMDA0NiA2
NTUzNSBmDQowMDAwMDAwMDQ3IDY1NTM1IGYNCjAwMDAwMDAwNDggNjU1MzUgZg0KMDAwMDAwMDA0
OSA2NTUzNSBmDQowMDAwMDAwMDUwIDY1NTM1IGYNCjAwMDAwMDAwNTEgNjU1MzUgZg0KMDAwMDAw
MDA1MiA2NTUzNSBmDQowMDAwMDAwMDUzIDY1NTM1IGYNCjAwMDAwMDAwNTQgNjU1MzUgZg0KMDAw
MDAwMDA1NSA2NTUzNSBmDQowMDAwMDAwMDU2IDY1NTM1IGYNCjAwMDAwMDAwNTcgNjU1MzUgZg0K
MDAwMDAwMDA1OCA2NTUzNSBmDQowMDAwMDAwMDU5IDY1NTM1IGYNCjAwMDAwMDAwNjAgNjU1MzUg
Zg0KMDAwMDAwMDA2MSA2NTUzNSBmDQowMDAwMDAwMDYyIDY1NTM1IGYNCjAwMDAwMDAwNjMgNjU1
MzUgZg0KMDAwMDAwMDA2NCA2NTUzNSBmDQowMDAwMDAwMDY1IDY1NTM1IGYNCjAwMDAwMDAwNjYg
NjU1MzUgZg0KMDAwMDAwMDA2NyA2NTUzNSBmDQowMDAwMDAwMDY4IDY1NTM1IGYNCjAwMDAwMDAw
NjkgNjU1MzUgZg0KMDAwMDAwMDA3MCA2NTUzNSBmDQowMDAwMDAwMDcxIDY1NTM1IGYNCjAwMDAw
MDAwNzIgNjU1MzUgZg0KMDAwMDAwMDA3MyA2NTUzNSBmDQowMDAwMDAwMDc0IDY1NTM1IGYNCjAw
MDAwMDAwNzUgNjU1MzUgZg0KMDAwMDAwMDA3NiA2NTUzNSBmDQowMDAwMDAwMDc3IDY1NTM1IGYN
CjAwMDAwMDAwNzggNjU1MzUgZg0KMDAwMDAwMDA3OSA2NTUzNSBmDQowMDAwMDAwMDgwIDY1NTM1
IGYNCjAwMDAwMDAwODEgNjU1MzUgZg0KMDAwMDAwMDA4MiA2NTUzNSBmDQowMDAwMDAwMDgzIDY1
NTM1IGYNCjAwMDAwMDAwODQgNjU1MzUgZg0KMDAwMDAwMDA4NSA2NTUzNSBmDQowMDAwMDAwMDg2
IDY1NTM1IGYNCjAwMDAwMDAwODcgNjU1MzUgZg0KMDAwMDAwMDA4OCA2NTUzNSBmDQowMDAwMDAw
MDg5IDY1NTM1IGYNCjAwMDAwMDAwOTAgNjU1MzUgZg0KMDAwMDAwMDA5MSA2NTUzNSBmDQowMDAw
MDAwMDkyIDY1NTM1IGYNCjAwMDAwMDAwOTMgNjU1MzUgZg0KMDAwMDAwMDA5NCA2NTUzNSBmDQow
MDAwMDAwMDk1IDY1NTM1IGYNCjAwMDAwMDAwOTYgNjU1MzUgZg0KMDAwMDAwMDA5NyA2NTUzNSBm
DQowMDAwMDAwMDk4IDY1NTM1IGYNCjAwMDAwMDAwOTkgNjU1MzUgZg0KMDAwMDAwMDEwMCA2NTUz
NSBmDQowMDAwMDAwMTAxIDY1NTM1IGYNCjAwMDAwMDAxMDIgNjU1MzUgZg0KMDAwMDAwMDEwMyA2
NTUzNSBmDQowMDAwMDAwMTA0IDY1NTM1IGYNCjAwMDAwMDAxMDUgNjU1MzUgZg0KMDAwMDAwMDEw
NiA2NTUzNSBmDQowMDAwMDAwMTA3IDY1NTM1IGYNCjAwMDAwMDAxMDggNjU1MzUgZg0KMDAwMDAw
MDEwOSA2NTUzNSBmDQowMDAwMDAwMTEwIDY1NTM1IGYNCjAwMDAwMDAxMTEgNjU1MzUgZg0KMDAw
MDAwMDExMiA2NTUzNSBmDQowMDAwMDAwMTEzIDY1NTM1IGYNCjAwMDAwMDAxMTQgNjU1MzUgZg0K
MDAwMDAwMDExNSA2NTUzNSBmDQowMDAwMDAwMTE2IDY1NTM1IGYNCjAwMDAwMDAxMTcgNjU1MzUg
Zg0KMDAwMDAwMDAwMCA2NTUzNSBmDQowMDAwMDA5MTUzIDAwMDAwIG4NCjAwMDAwMDk0NTMgMDAw
MDAgbg0KMDAwMDAyNzI2OSAwMDAwMCBuDQowMDAwMDI3NjEzIDAwMDAwIG4NCjAwMDAwMjc5MTcg
MDAwMDAgbg0KMDAwMDAyODE4OSAwMDAwMCBuDQowMDAwMDQ1MTg0IDAwMDAwIG4NCjAwMDAwNDUy
NDYgMDAwMDAgbg0KMDAwMDA1NzgxMiAwMDAwMCBuDQowMDAwMDU4MDk0IDAwMDAwIG4NCjAwMDAw
NzYyODkgMDAwMDAgbg0KMDAwMDA3NjMxNyAwMDAwMCBuDQp0cmFpbGVyDQo8PC9TaXplIDEzMC9S
b290IDEgMCBSL0luZm8gMjAgMCBSL0lEWzxDRkM4QjgwNkNFQURCMjQzQkVDODIxNzhDNDdDMUJG
QT48Q0ZDOEI4MDZDRUFEQjI0M0JFQzgyMTc4QzQ3QzFCRkE+XSA+Pg0Kc3RhcnR4cmVmDQo3Njgy
Mw0KJSVFT0YNCnhyZWYNCjAgMA0KdHJhaWxlcg0KPDwvU2l6ZSAxMzAvUm9vdCAxIDAgUi9JbmZv
IDIwIDAgUi9JRFs8Q0ZDOEI4MDZDRUFEQjI0M0JFQzgyMTc4QzQ3QzFCRkE+PENGQzhCODA2Q0VB
REIyNDNCRUM4MjE3OEM0N0MxQkZBPl0gL1ByZXYgNzY4MjMvWFJlZlN0bSA3NjMxNz4+DQpzdGFy
dHhyZWYNCjc5NTgyDQolJUVPRg=="/>
			</Binary>
		</resource>
	</entry>
</Bundle>
